trial,delta_stimulation,delta_target,reversed,response,reaction_time,time_delay,stimulus_time,position,failed,n_block,within_block_counter
0,1.4,1.2,False,1,0.9861221313476562,0.12199306163711263,1.933765172958374,2,False,1,0
1,1.2,1.0,False,1,0.6276209354400635,0.17483450930797717,1.3542850017547607,6,False,1,1
2,1.0,0.8,False,1,1.389493703842163,0.1340926143427026,2.386420965194702,4,False,1,2
0,0.2,0.1,False,1,0.4826490879058838,0.19344877725063359,1.227243185043335,9,False,1,0
1,0.2,0.0,False,1,0.7640750408172607,0.38515603285854594,1.6483829021453857,7,False,1,1
2,0.2,0.14,True,0,0.5793471336364746,0.2974067481202447,2.3282980918884277,6,False,1,2
3,0.2,0.14,True,1,1.0713536739349365,0.25285408546518595,1.0237617492675781,2,False,1,3
3,0.8,0.6000000000000001,False,1,0.694908857345581,0.20800716972033043,2.9332199096679688,8,False,1,3
4,0.6000000000000001,0.4000000000000001,False,1,1.2384493350982666,0.2523237058786124,0.9804341793060303,9,False,1,4
5,0.4000000000000001,0.20000000000000007,False,1,0.636193037033081,0.19729585486869228,0.9432308673858643,1,False,1,5
0,0.2,0.14,True,3,0,0,0.4391467571258545,4,True,1,4,0,0,0
6,0.20000000000000007,5.551115123125783e-17,False,1,0.9669008255004883,0.3483854244130311,1.1927680969238281,8,False,1,6,0,0,0
4,0.2,0.14,False,1,0.49950408935546875,0.3366296514387394,0.8969769477844238,2,False,1,5,0,0,0
5,0.2,0.04000000000000001,False,1,0.6651661396026611,0.3601624555145062,0.9776818752288818,3,False,1,6,0,0,0
6,0.2,0.04000000000000001,False,1,0.7507998943328857,0.3886823463333564,0.7971210479736328,9,False,1,7,0,0,0
7,0.2,0.04000000000000001,False,1,0.935302734375,0.1727553333163042,0.7794699668884277,5,False,1,8,0,0,0
8,0.2,-0.06,False,1,0.6157302856445312,0.20744189775007063,0.8352949619293213,6,False,1,9,0,0,0
9,0.2,-0.06,False,1,0.7051041126251221,0.3558253413470406,1.559401273727417,7,False,1,10,0,0,0
10,0.2,-0.06,False,1,0.7636682987213135,0.13296773411371118,0.9830889701843262,8,False,1,11,0,0,0
11,0.2,-0.16,False,1,0.8704450130462646,0.39788108692134616,0.6556990146636963,9,False,1,12,0,0,0
7,0.2,0.14000000000000007,True,0,0.6202852725982666,0.2643649424018545,0.9592299461364746,3,False,1,7,0,0,0
8,0.2,0.14000000000000007,True,1,0.787837028503418,0.10427104487197335,1.3972208499908447,2,False,1,8,0,0,0
12,0.2,-0.16,False,1,0.6853160858154297,0.28276167312466927,1.0997130870819092,5,False,1,13,0,0,0
9,0.2,0.14000000000000007,False,1,0.49753880500793457,0.2763383551868826,1.137789011001587,9,False,1,9,0,0,0
10,0.2,0.04000000000000006,False,1,0.8090157508850098,0.33538470200341197,1.2061917781829834,3,False,1,10,0,0,0
11,0.2,0.18000000000000008,True,0,1.308311939239502,0.3155971616711313,1.3082480430603027,1,False,1,11,0,0,0
12,0.2,0.18000000000000008,True,1,1.4939587116241455,0.1417580233276435,0.6297628879547119,8,False,1,12,0,0,0
0,0.2,0.18000000000000008,True,3,0,0,0.7123880386352539,4,True,1,13,0,0,0
13,0.2,0.18000000000000008,False,1,0.5792970657348633,0.3919493265293056,1.104085922241211,2,False,1,14,0,0,0
14,0.2,0.08000000000000007,False,1,0.5235121250152588,0.3355487313469001,0.9007289409637451,1,False,1,15,0,0,0
13,0.2,-0.16,False,1,0.9214153289794922,0.2518163663706595,0.7322697639465332,7,False,1,14,0,0,0
0,0.2,0.08000000000000007,False,3,0,0,0.8328959941864014,5,True,1,16,0,0,0
14,0.2,-0.26,False,1,0.9209740161895752,0.26607256128412526,1.5683860778808594,2,False,1,15,0,0,0
15,0.2,-0.12,True,0,1.2092249393463135,0.23245633345664898,0.8485162258148193,1,False,1,16,0,0,0
16,0.2,-0.12,True,1,0.8149030208587646,0.16528969086551287,1.2115168571472168,6,False,1,17,0,0,0
15,0.2,0.08000000000000007,False,1,0.6229720115661621,0.2986917341815728,1.1212730407714844,4,False,1,17,0,0,0
17,0.2,-0.12,False,1,0.5319008827209473,0.3502937533092493,0.9409267902374268,8,False,1,18,0,0,0
18,0.2,0.020000000000000018,True,0,1.0639350414276123,0.39089303216428306,1.7125070095062256,1,False,1,19,0,0,0
19,0.2,0.16000000000000003,False,0,0.7830238342285156,0.27472557421582755,0.6939032077789307,6,False,1,20,0,0,0
0,0.2,0.16000000000000003,False,3,0,0,0.4177999496459961,5,True,1,21,0,0,0
20,0.2,0.16000000000000003,True,1,0.6099328994750977,0.25758889383801625,1.3224470615386963,8,False,1,22,0,0,0
0,0.2,0.16000000000000003,True,3,0,0,0.38921594619750977,1,True,1,23,0,0,0
21,0.2,0.16000000000000003,False,1,0.6618387699127197,0.1652448525681523,1.2393229007720947,2,False,1,24,0,0,0
0,0.2,0.08000000000000007,False,3,0,0,0.3724081516265869,4,True,1,18,0,0,0
16,0.2,0.08000000000000007,False,1,0.3473949432373047,0.22981441297905034,0.8888871669769287,6,False,1,19,0,0,0
22,0.2,0.060000000000000026,False,1,0.9252190589904785,0.3811929032064081,0.4621920585632324,9,False,1,25,0,0,0
17,0.2,0.22000000000000008,True,0,0.6026890277862549,0.31212899478043044,1.2441527843475342,8,False,1,20,0,0,0
0,0.2,0.060000000000000026,False,3,0,0,0.43235301971435547,4,True,1,26,0,0,0
23,0.2,0.20000000000000004,True,0,1.0200927257537842,0.23712358493809862,0.422727108001709,7,False,1,27,0,0,0
0,0.22000000000000008,0.22000000000000008,True,3,0,0,0.3922760486602783,2,True,1,21,0,0,0
18,0.22000000000000008,0.3600000000000001,False,0,0.7860920429229736,0.2333495802529576,1.091463327407837,1,False,1,22,0,0,0
24,0.20000000000000004,0.20000000000000004,True,1,0.4862818717956543,0.36529830493000337,1.0161809921264648,6,False,1,28,0,0,0
0,0.20000000000000004,0.20000000000000004,True,3,0,0,0.828934907913208,5,True,1,29,0,0,0
19,0.3600000000000001,0.5000000000000001,False,0,1.096261978149414,0.2897736941918069,1.2092337608337402,4,False,1,23,0,0,0
25,0.20000000000000004,0.20000000000000004,False,1,1.3420438766479492,0.3554257584666365,5.406814813613892,1,False,1,30,0,0,0
26,0.20000000000000004,0.3400000000000001,True,0,1.1223840713500977,0.3138723329780032,0.42174482345581055,2,False,1,31,0,0,0
27,0.3400000000000001,0.3400000000000001,True,1,0.7247359752655029,0.35929708627552503,0.8668348789215088,9,False,1,32,0,0,0
20,0.5000000000000001,0.5000000000000001,True,1,0.7745788097381592,0.16331441005372527,3.8390283584594727,5,False,1,24,0,0,0
28,0.3400000000000001,0.3400000000000001,False,1,0.4060080051422119,0.14945119444971966,1.7997932434082031,3,False,1,33,0,0,0
21,0.5000000000000001,0.5000000000000001,False,1,0.5921447277069092,0.13195111523163214,1.7442991733551025,7,False,1,25,0,0,0
22,0.5000000000000001,0.40000000000000013,False,1,0.7818338871002197,0.35880017377909224,0.9709129333496094,9,False,1,26,0,0,0
29,0.3400000000000001,0.24000000000000007,False,1,0.897611141204834,0.18258057946872885,5.540369987487793,5,False,1,34,0,0,0
23,0.40000000000000013,0.40000000000000013,False,1,0.35611915588378906,0.33788841223913624,1.3441669940948486,3,False,1,27,0,0,0
24,0.40000000000000013,0.40000000000000013,False,1,0.5749471187591553,0.3766098313670978,1.1518778800964355,1,False,1,28,0,0,0
25,0.40000000000000013,0.30000000000000016,False,1,0.6618201732635498,0.171046103440737,1.0005347728729248,7,False,1,29,0,0,0
0,0.24000000000000007,0.24000000000000007,False,3,0,0,0.39456987380981445,9,True,1,35,0,0,0
30,0.24000000000000007,0.24000000000000007,False,1,0.6940608024597168,0.3102496602901452,0.8442199230194092,3,False,1,36,0,0,0
31,0.24000000000000007,0.24000000000000007,False,1,0.8763570785522461,0.19148161739916725,1.4981780052185059,6,False,1,37,0,0,0
26,0.30000000000000016,0.30000000000000016,False,1,0.9875640869140625,0.38372865286926805,2.0408718585968018,8,False,1,30,0,0,0
32,0.24000000000000007,0.3800000000000001,True,0,0.7668631076812744,0.1337350604229151,0.4006659984588623,2,False,1,38,0,0,0
0,0.3800000000000001,0.3800000000000001,True,3,0,0,0.8110980987548828,4,True,1,39,0,0,0
0,0.30000000000000016,0.30000000000000016,False,3,0,0,10.085493087768555,1,True,1,31,0,0,0
27,0.30000000000000016,0.44000000000000017,True,0,1.1097991466522217,0.16433995139755964,1.1767821311950684,6,False,1,32,0,0,0
28,0.44000000000000017,0.5800000000000002,False,0,1.0324537754058838,0.2154556322107955,1.067533016204834,9,False,1,33,0,0,0
33,0.3800000000000001,0.3800000000000001,True,1,0.36025404930114746,0.1333182508054026,2.2981531620025635,5,False,1,40,0,0,0
34,0.3800000000000001,0.3800000000000001,False,1,0.5163300037384033,0.31916189888800406,1.4920189380645752,3,False,1,41,0,0,0
29,0.5800000000000002,0.5800000000000002,True,1,0.6828470230102539,0.32707418357160345,1.4615240097045898,6,False,1,34,0,0,0
35,0.3800000000000001,0.28000000000000014,False,1,0.697227954864502,0.1584792702037441,2.845529079437256,7,False,1,42,0,0,0
30,0.5800000000000002,0.5800000000000002,False,1,0.7032158374786377,0.348950768279917,4.043820142745972,8,False,1,35,0,0,0
0,0.5800000000000002,0.5800000000000002,False,3,0,0,0.3600931167602539,1,True,1,36,0,0,0
31,0.5800000000000002,0.7200000000000002,True,0,0.3887817859649658,0.27797403718800084,1.2777600288391113,5,False,1,37,0,0,0
0,0.28000000000000014,0.28000000000000014,False,3,0,0,0.6648530960083008,4,True,1,43,0,0,0
0,0.28000000000000014,0.28000000000000014,False,3,0,0,0.3778529167175293,9,True,1,44,0,0,0
32,0.7200000000000002,0.7200000000000002,True,1,0.917680025100708,0.3695975158411041,0.6947388648986816,3,False,1,38,0,0,0
33,0.7200000000000002,0.7200000000000002,False,1,0.8493361473083496,0.2535670266871165,0.6062526702880859,7,False,1,39,0,0,0
0,0.28000000000000014,0.28000000000000014,False,3,0,0,10.205761194229126,6,True,2,0,0,0,0
0,0.28000000000000014,0.28000000000000014,False,3,0,0,1.143998146057129,1,True,2,1,0,0,0
0,0.7200000000000002,0.7200000000000002,False,3,0,0,0.5338668823242188,4,True,1,40,0,0,0
0,0.28000000000000014,0.28000000000000014,False,3,0,0,0.7397599220275879,7,True,2,2,0,0,0
0,0.7200000000000002,0.7200000000000002,False,3,0,0,10.199956893920898,6,True,1,41,0,0,0
0,0.28000000000000014,0.28000000000000014,False,3,0,0,0.6368930339813232,5,True,2,3,0,0,0
34,0.7200000000000002,0.6200000000000002,False,1,1.358950138092041,0.12080960261708015,0.8704960346221924,4,False,1,42,0,0,0
0,0.6200000000000002,0.6200000000000002,False,3,0,0,0.9043779373168945,2,True,1,43,0,0,0
36,0.28000000000000014,0.28000000000000014,False,1,0.9164140224456787,0.21139151083171875,1.353402853012085,6,False,2,4,0,0,0
0,0.28000000000000014,0.28000000000000014,False,3,0,0,0.9411799907684326,3,True,2,5,0,0,0
35,0.6200000000000002,0.6200000000000002,False,1,1.0242280960083008,0.348902631936137,1.3192179203033447,1,False,1,44,0,0,0
36,0.6200000000000002,0.6200000000000002,False,1,0.7802402973175049,0.15396862455164242,0.8869550228118896,5,False,1,45,0,0,0
37,0.6200000000000002,0.5200000000000002,False,1,0.7789449691772461,0.3438621753755855,0.7180533409118652,6,False,1,46,0,0,0
0,0.5200000000000002,0.5200000000000002,False,3,0,0,0.9368212223052979,9,True,1,47,0,0,0
37,0.28000000000000014,0.28000000000000014,False,1,0.6316859722137451,0.3165845015055853,0.8367269039154053,8,False,2,6,0,0,0
0,0.5200000000000002,0.5200000000000002,False,3,0,0,1.3838441371917725,3,True,1,48,0,0,0
38,0.28000000000000014,0.18000000000000013,False,1,1.0049388408660889,0.25372978519036105,1.022589921951294,1,False,2,7,0,0,0
38,0.5200000000000002,0.5200000000000002,False,1,0.758033037185669,0.2691441015448305,1.0494399070739746,6,False,1,49,0,0,0
0,0.2,0.18000000000000013,False,3,0,0,0.5526101589202881,5,True,2,8,0,0,0
39,0.5200000000000002,0.5200000000000002,False,1,0.7752780914306641,0.3299202717689853,1.0585649013519287,3,False,1,50,0,0,0
39,0.2,0.18000000000000013,False,1,1.0396828651428223,0.38209825909976713,0.5703239440917969,9,False,2,9,0,0,0
40,0.2,0.18000000000000013,False,1,0.7921619415283203,0.10696942246335173,1.1529836654663086,6,False,2,10,0,0,0
0,0.5200000000000002,0.5200000000000002,False,3,0,0,1.670586109161377,8,True,1,51,0,0,0
41,0.2,0.08000000000000013,False,1,0.8239140510559082,0.27687677244476083,0.9674239158630371,2,False,2,11,0,0,0
0,0.2,0.08000000000000013,False,3,0,0,0.4785439968109131,7,True,2,12,0,0,0
42,0.2,0.08000000000000013,False,1,0.8504030704498291,0.3679993910231302,1.063645839691162,3,False,2,13,0,0,0
40,0.5200000000000002,0.6600000000000003,True,0,1.2659540176391602,0.3778626251636663,3.1184048652648926,4,False,1,52,0,0,0
0,0.6600000000000003,0.6600000000000003,True,3,0,0,10.133248090744019,6,True,1,53,0,0,0
43,0.2,0.08000000000000013,False,1,1.1784451007843018,0.3732653715032811,0.4991140365600586,9,False,2,14,0,0,0
41,0.6600000000000003,0.6600000000000003,True,1,0.6931259632110596,0.37130550225634407,0.8896870613098145,5,False,1,54,0,0,0
44,0.2,-0.01999999999999988,False,1,0.6656560897827148,0.15339321685348659,0.8919041156768799,4,False,2,15,0,0,0
45,0.2,-0.01999999999999988,False,1,1.0074889659881592,0.3279708079431245,0.6557159423828125,8,False,2,16,0,0,0
42,0.6600000000000003,0.6600000000000003,False,1,0.787855863571167,0.23264947471303252,0.8693828582763672,2,False,1,55,0,0,0
46,0.2,-0.01999999999999988,False,1,1.1728408336639404,0.2779869921032329,0.9432590007781982,3,False,2,17,0,0,0
47,0.2,-0.11999999999999988,False,1,1.0187783241271973,0.3667589012572794,1.1104156970977783,4,False,2,18,0,0,0
43,0.6600000000000003,0.8000000000000003,True,0,0.7575018405914307,0.10327462718836977,0.9122569561004639,9,False,1,56,0,0,0
0,0.2,-0.11999999999999988,False,3,0,0,0.38129425048828125,7,True,2,19,0,0,0
48,0.2,-0.11999999999999988,False,1,0.8593370914459229,0.1424181932270398,1.2839820384979248,2,False,2,20,0,0,0
49,0.2,-0.11999999999999988,False,1,0.9916939735412598,0.38145815310991305,0.8659117221832275,5,False,2,21,0,0,0
50,0.2,-0.2199999999999999,False,1,0.7860078811645508,0.19807643973641115,0.8659629821777344,6,False,2,22,0,0,0
51,0.2,-0.07999999999999988,True,0,1.184624195098877,0.33448600097035214,0.720024824142456,4,False,2,23,0,0,0
