trial,delta_stimulation,delta_target,reversed,response,listened,hypothesis,confidence,reaction_time,time_delay,stimulus_time,position,failed,n_block,within_block_counter
0,1.4,1.2,False,1,yes ,yes ,0.51,3.390281915664673,0.11825980272015638,1.6652119159698486,9,False,1,0
1,1.2,1.0,False,1,yes ,yes ,0.99,2.9238321781158447,0.3010944512771256,1.017284870147705,8,False,1,1
0,0.2,0.1,False,1,yes ,yes ,0.98,2.845621109008789,0.3111103643943771,0.7957510948181152,5,False,1,0
1,0.2,0.24000000000000002,True,0,no ,no ,0.52,6.901315212249756,0.2507640988189471,0.44315385818481445,6,False,1,1
2,0.24000000000000002,0.38,False,0,no ,no ,0.34,2.963203191757202,0.3959720760531734,0.5586390495300293,9,False,1,2
2,1.0,0.8,False,1,yes ,yes ,0.99,2.800262212753296,0.3540595893652688,1.4225671291351318,7,False,1,2
3,0.38,0.38,True,1,yes ,yes ,0.99,2.901344060897827,0.2767891419291889,1.1534881591796875,2,False,1,3
3,0.8,0.6000000000000001,False,1,yes ,yes ,0.99,2.891975164413452,0.324505309003631,1.4968082904815674,3,False,1,3
4,0.38,0.38,False,1,yes ,yes ,0.99,2.7329657077789307,0.2760742817682952,0.7601680755615234,6,False,1,4
5,0.38,0.28,False,1,yes ,yes ,0.99,2.986449718475342,0.24243958040675215,0.9878661632537842,9,False,1,5
6,0.28,0.28,False,1,yes ,yes ,0.99,3.205638885498047,0.3394176002030403,0.4381287097930908,2,False,1,6
4,0.6000000000000001,0.4000000000000001,False,1,yes ,yes ,0.99,2.814455032348633,0.16782321391136762,1.1844158172607422,8,False,1,4
5,0.4000000000000001,0.54,True,0,no ,no ,0.66,2.8675270080566406,0.3411890248822088,0.9321310520172119,1,False,1,5
0,0.28,0.28,False,3,0,0,0,0,0,0.37949395179748535,9,True,1,7
7,0.28,0.42000000000000004,True,0,no ,no ,0.68,2.7785861492156982,0.13570681689642386,0.6891710758209229,4,False,1,8
8,0.42000000000000004,0.56,False,0,no ,no ,0.66,2.8483729362487793,0.32426819986954986,0.7928619384765625,2,False,1,9
6,0.54,0.54,True,1,yes ,yes ,0.99,2.8496592044830322,0.21069585282301692,0.8214569091796875,8,False,1,6
7,0.54,0.68,True,0,nope ,nope ,0.28,2.7637388706207275,0.27978272412024613,0.40073513984680176,9,False,1,7
9,0.56,0.56,True,1,yes ,yes ,0.99,2.902604103088379,0.3133469340667958,0.9975178241729736,4,False,1,10
10,0.56,0.56,False,1,yes ,yes ,0.98,2.6298060417175293,0.10486190843973042,1.0961568355560303,7,False,1,11
8,0.68,0.68,True,1,yes ,yes ,0.99,2.7487332820892334,0.3531659801483189,0.7578198909759521,6,False,1,8
11,0.56,0.7000000000000001,True,0,no ,no ,0.83,2.758465051651001,0.3180753406014425,1.4586029052734375,1,False,1,12
12,0.7000000000000001,0.7000000000000001,True,1,yes ,yes ,0.99,2.793341875076294,0.3561182237006264,0.9195048809051514,2,False,1,13
9,0.68,0.68,False,1,yes ,yes ,0.99,3.000947952270508,0.12961134704362615,1.0930750370025635,4,False,1,9
13,0.7000000000000001,0.7000000000000001,False,1,yes ,yes ,0.99,2.9875478744506836,0.11683010418498406,1.2441980838775635,8,False,1,14
14,0.7000000000000001,0.6000000000000001,False,1,yes ,yes ,0.99,2.7726950645446777,0.34541842591734223,1.4166271686553955,3,False,1,15
15,0.6000000000000001,0.7400000000000001,True,0,no ,no ,0.83,2.974158763885498,0.10176592411188543,0.8188109397888184,2,False,1,16
16,0.7400000000000001,0.7400000000000001,True,1,yes ,yes ,0.99,2.667226791381836,0.1638240816349699,1.1653790473937988,7,False,1,17
0,0.68,0.68,False,3,0,0,0,0,0,0.4521968364715576,4,True,1,10
17,0.7400000000000001,0.7400000000000001,False,1,yes ,yes ,0.99,2.8850338459014893,0.3257213499730481,1.4651799201965332,3,False,1,18
18,0.7400000000000001,0.6400000000000001,False,1,yes ,yes ,0.99,2.850827932357788,0.33578310424826074,1.689729928970337,9,False,1,19
19,0.6400000000000001,0.6400000000000001,False,1,yes ,yes ,0.94,2.758168935775757,0.10018696540756492,1.2102880477905273,6,False,1,20
10,0.68,0.8200000000000001,True,0,now ,now ,0.33,2.5585930347442627,0.15764263456905178,0.7286920547485352,4,False,1,11
11,0.8200000000000001,0.9600000000000001,False,0,no ,no ,0.66,2.8428077697753906,0.16727967412725703,2.011847972869873,7,False,1,12
12,0.9600000000000001,1.1,False,0,no ,no ,0.81,2.8208329677581787,0.17336080836360246,3.4029719829559326,2,False,1,13
13,1.1,1.1,True,1,yes ,yes ,0.99,2.838144063949585,0.2511419003719093,5.949831962585449,8,False,1,14
14,1.1,1.2400000000000002,True,0,no ,no ,0.58,2.603632926940918,0.11830761937815756,1.8535101413726807,1,False,1,15
20,0.6400000000000001,0.6400000000000001,False,1,yeah ,yeah ,0.15,3.7084012031555176,0.14116838403755025,1.5996577739715576,9,False,1,21
21,0.6400000000000001,0.5400000000000001,False,1,yes ,yes ,0.99,2.753161907196045,0.17116994149817535,1.197619915008545,7,False,1,22
22,0.5400000000000001,0.6800000000000002,True,0,no ,no ,0.78,2.690419912338257,0.28494072360125117,1.3047122955322266,5,False,1,23
23,0.6800000000000002,0.6800000000000002,True,1,yes ,yes ,0.99,2.853039026260376,0.39233715777255584,1.6262340545654297,3,False,1,24
15,1.2400000000000002,1.2400000000000002,True,1,yes ,yes ,0.99,2.8405840396881104,0.2569860175693083,3.0359318256378174,6,False,1,16
16,1.2400000000000002,1.3800000000000003,True,0,no ,no ,0.85,2.735499858856201,0.2703009955184056,2.9176549911499023,4,False,1,17
17,1.3800000000000003,1.3800000000000003,True,1,yes ,yes ,0.99,3.003164768218994,0.23818135899849266,3.3729562759399414,9,False,1,18
24,0.6800000000000002,0.8200000000000002,True,0,no ,no ,0.7,2.831462860107422,0.1844723121760775,0.9129009246826172,1,False,1,25
18,1.3800000000000003,1.3800000000000003,False,1,yes ,yes ,0.99,2.798457145690918,0.3882712710932341,2.1250319480895996,2,False,1,19
25,0.8200000000000002,0.8200000000000002,True,1,yes ,yes ,0.99,3.036602020263672,0.16418668545736842,1.6581311225891113,5,False,1,26
26,0.8200000000000002,0.9600000000000002,True,0,no ,no ,0.69,2.747213840484619,0.28291014350210986,2.800352096557617,7,False,1,27
19,1.3800000000000003,1.2800000000000002,False,1,yes ,yes ,0.99,3.0685291290283203,0.21551843301248888,3.720958948135376,8,False,1,20
20,1.2800000000000002,1.2800000000000002,False,1,yes ,yes ,0.99,2.930267810821533,0.16901345797610573,3.6471779346466064,6,False,1,21
21,1.2800000000000002,1.4200000000000004,True,0,no no ,no no ,0.4,7.155696868896484,0.11252250887218457,1.6689250469207764,1,False,1,22
22,1.4200000000000004,1.4200000000000004,True,1,yes ,yes ,0.98,6.991729974746704,0.13075035718766734,2.080233097076416,3,False,1,23
0,1.4200000000000004,1.4200000000000004,True,3,0,0,0,0,0,0.5219039916992188,4,True,1,24
23,1.4200000000000004,1.4200000000000004,False,1,yes ,yes ,0.99,2.8285467624664307,0.2554279668167644,2.568671941757202,8,False,1,25
24,1.4200000000000004,1.3200000000000003,False,1,yes ,yes ,0.99,2.9667699337005615,0.3267733250323991,2.5523500442504883,1,False,1,26
25,1.3200000000000003,1.3200000000000003,False,1,yes ,yes ,0.99,3.059431314468384,0.20773229138086252,1.8786940574645996,3,False,1,27
0,1.3200000000000003,1.3200000000000003,False,3,0,0,0,0,0,0.42037510871887207,4,True,1,28
26,1.3200000000000003,1.4600000000000004,True,0,now ,now ,0.24,2.8798539638519287,0.14343714459317686,2.2792038917541504,5,False,1,29
