trial,interactor,cooling,response,time_delay,reaction_time,stimulus_time,position,failed,n_block,within_block_counter
1,1,0,0,0.18356267402702278,1.3525011539459229,3.002411127090454,7,False,1,1
2,0,1,0,0.36404417282573354,1.2239999771118164,3.4415910243988037,1,False,1,2
3,0,0,0,0.11320577415448453,1.4278810024261475,3.055347204208374,5,False,1,3
4,2,0,0,0.27826184325753456,1.3121421337127686,3.4478821754455566,9,False,1,4
5,1,1,0,0.19685448563766283,1.338766098022461,4.39921498298645,1,False,1,5
6,0,0,0,0.12634313572963402,1.0490260124206543,4.589039087295532,7,False,1,6
7,1,0,0,0.20553678885539223,0.9958369731903076,3.277669906616211,6,False,1,7
8,0,1,0,0.12177857015624075,0.6985480785369873,2.6592931747436523,1,False,1,8
9,1,1,1,0.37638616224489585,0.4805769920349121,3.547714948654175,7,False,1,9
10,1,0,0,0.31156678306020724,0.6703741550445557,3.895193099975586,3,False,1,10
11,2,0,0,0.29437345374856994,0.7280161380767822,3.497570037841797,5,False,1,11
12,0,0,1,0.39902208412361917,0.5434749126434326,2.8226139545440674,9,False,1,12
13,0,1,0,0.1962746760601902,0.6154148578643799,5.555371046066284,7,False,1,13
14,0,0,0,0.3674848973083178,0.6375980377197266,3.366786241531372,2,False,1,14
15,1,1,1,0.10246406069097351,0.8345253467559814,1.5232200622558594,9,False,1,15
16,2,1,0,0.22704864509497058,0.7515897750854492,3.93001389503479,4,False,1,16
17,1,0,1,0.32128332998657494,0.40648698806762695,4.14949107170105,3,False,1,17
18,0,1,1,0.15698438942539428,0.5095779895782471,0.6881017684936523,8,False,1,18
19,2,1,0,0.326808387887812,1.015531063079834,4.565342903137207,1,False,1,19
20,0,0,0,0.21518690766223458,0.6024341583251953,4.493666648864746,3,False,1,20
21,2,0,0,0.24001111314474524,0.572944164276123,3.4348549842834473,7,False,1,21
22,0,0,0,0.2716510756484334,0.8279049396514893,4.24052619934082,9,False,1,22
23,2,1,1,0.12591949382074186,0.4407169818878174,2.7239279747009277,5,False,1,23
24,0,0,0,0.31507981854269884,0.6770079135894775,4.464222192764282,3,False,1,24
25,0,0,0,0.13751090836081686,1.0078027248382568,4.347249984741211,7,False,1,25
26,0,0,0,0.18773602633979009,0.6822171211242676,3.9657399654388428,9,False,1,26
27,2,0,0,0.22260290264049684,0.6258370876312256,0.837395191192627,5,False,1,27
28,0,1,1,0.3193030421878989,0.5511159896850586,3.108067035675049,3,False,1,28
29,1,1,1,0.34106094384207275,0.5719900131225586,7.777135848999023,1,False,1,29
30,1,0,1,0.3008695373174774,0.723391056060791,3.564406156539917,8,False,1,30
31,0,0,0,0.30319332776232044,0.5877261161804199,4.411880970001221,6,False,1,31
32,2,0,0,0.24354927792802747,0.7701549530029297,3.908764123916626,2,False,1,32
33,2,1,1,0.3120874583179347,0.4493579864501953,6.719561815261841,4,False,1,33
34,1,0,0,0.29951239938670365,0.8080730438232422,4.244024991989136,8,False,1,34
35,1,1,1,0.23958187650002136,0.5649328231811523,4.178583145141602,3,False,1,35
36,0,0,0,0.3971922455300393,0.8626949787139893,3.961947202682495,1,False,1,36
37,2,1,1,0.2933560482556679,0.6396851539611816,6.052309036254883,8,False,1,37
38,1,1,1,0.11672397279822513,0.876514196395874,6.709398984909058,3,False,1,38
39,0,1,0,0.12904717917099737,0.6133518218994141,7.578348875045776,4,False,1,39
40,0,1,1,0.37852578682978055,0.5696251392364502,4.641846179962158,8,False,1,40
41,1,1,1,0.23977395775456553,0.650904655456543,3.2890639305114746,6,False,1,41
42,2,0,0,0.38571526113693866,0.6455931663513184,4.4578611850738525,4,False,1,42
43,0,0,0,0.33300229075734256,1.096059799194336,3.2307639122009277,2,False,1,43
44,2,0,0,0.39759877801298016,0.6308512687683105,3.08561372756958,8,False,1,44
45,2,0,1,0.1623524971920769,0.7706677913665771,2.7424681186676025,4,False,1,45
46,0,1,1,0.3345900327183595,0.465404748916626,2.562796115875244,6,False,1,46
47,2,1,1,0.23434068300719846,0.8108530044555664,0.487720251083374,8,False,1,47
48,0,1,3,0,0,10.337329149246216,1,True,1,48
49,1,0,0,0.34757617871705576,0.6159999370574951,3.5921630859375,6,False,1,49
50,2,1,3,0,0,10.152979850769043,7,True,1,50
51,0,0,0,0.38916287049561804,0.6537022590637207,3.2201428413391113,2,False,1,51
52,1,0,0,0.16424714461379597,0.947904109954834,4.730774641036987,6,False,2,0
53,1,0,0,0.11560961842941632,0.48578882217407227,3.046311140060425,4,False,2,1
54,1,0,1,0.3585456887303452,0.4992241859436035,3.405611038208008,8,False,2,2
55,0,0,0,0.17740681922195173,0.6818070411682129,3.466627836227417,6,False,2,3
56,0,0,0,0.24497544170928887,0.4806962013244629,6.8468523025512695,2,False,2,4
57,2,0,0,0.3957868534172433,0.5745682716369629,2.7982399463653564,7,False,2,5
58,0,1,1,0.321030494001895,1.0235676765441895,1.1855008602142334,9,False,2,6
59,0,0,0,0.3323415283766895,0.6587729454040527,3.557979106903076,5,False,2,7
60,2,1,1,0.22879238624673884,0.6442217826843262,2.5946061611175537,7,False,2,8
61,0,1,1,0.3081552107884207,0.6362652778625488,1.519500732421875,3,False,2,9
62,1,0,0,0.19122649449009166,0.7755923271179199,3.4968698024749756,5,False,2,10
63,1,1,1,0.29697037738929544,0.6889851093292236,5.1659300327301025,1,False,2,11
64,0,1,1,0.30590920910494435,0.349837064743042,1.3043959140777588,3,False,2,12
65,0,1,1,0.13261496375204168,0.505795955657959,0.9965200424194336,9,False,2,13
66,1,1,1,0.23939024004234216,0.47317004203796387,2.046143054962158,5,False,2,14
67,0,0,0,0.16343622830585985,0.865246057510376,3.097778081893921,1,False,2,15
68,1,0,0,0.34753984425107454,0.5214869976043701,4.222414016723633,9,False,2,16
69,2,1,1,0.2811460317730136,0.9847970008850098,2.0254690647125244,3,False,2,17
70,1,1,1,0.11246955299585643,0.48636603355407715,2.2594101428985596,5,False,2,18
71,1,0,1,0.2835003513065081,0.4282240867614746,1.311662197113037,9,False,2,19
72,1,1,1,0.12334790027360962,0.347959041595459,2.344177007675171,3,False,2,20
73,2,0,0,0.24811011382735634,0.6149611473083496,3.2531850337982178,5,False,2,21
74,2,0,0,0.2002709813977529,0.5884189605712891,3.66762638092041,7,False,2,22
75,2,0,0,0.13811017195712624,0.6941776275634766,4.191487073898315,1,False,2,23
76,0,1,0,0.33649215917621655,0.82466721534729,3.3451950550079346,5,False,2,24
77,1,0,0,0.2267703776452859,0.9073879718780518,4.1752729415893555,7,False,2,25
78,1,0,0,0.19681937805592442,0.8128619194030762,4.72973370552063,9,False,2,26
79,0,1,1,0.22904380302097826,0.6806342601776123,8.53172492980957,1,False,2,27
80,2,1,0,0.348725133254527,0.8459599018096924,3.0513100624084473,3,False,2,28
81,0,1,1,0.20912243400750938,0.8294217586517334,4.022090911865234,5,False,2,29
82,1,0,1,0.15335554658331407,0.3822448253631592,3.770369052886963,9,False,2,30
83,0,0,0,0.3654519046707002,0.7434918880462646,2.302086114883423,1,False,2,31
84,1,0,0,0.3182943227316548,0.8001658916473389,3.4943978786468506,5,False,2,32
85,1,1,1,0.10587627048253623,0.8151791095733643,7.788569927215576,7,False,2,33
86,0,0,0,0.17980139456633626,0.7839138507843018,4.711248874664307,9,False,2,34
87,2,1,1,0.18599797429904136,0.3599820137023926,8.796056985855103,2,False,2,35
88,1,1,3,0,0,10.24819302558899,4,True,2,36
89,2,1,1,0.18562180981636733,0.8836100101470947,9.31499695777893,8,False,2,37
90,2,0,0,0.3165763473812234,0.7743961811065674,4.313280820846558,2,False,2,38
91,1,1,3,0,0,10.20182490348816,4,True,2,39
92,1,1,3,0,0,0.8748130798339844,8,True,3,0
93,0,1,1,0.325642624326809,0.739130973815918,0.828855037689209,6,False,3,1
94,1,0,1,0.35447911965723633,0.3938450813293457,3.078917980194092,4,False,3,2
95,1,1,1,0.13802857350220937,0.5799961090087891,1.494673252105713,2,False,3,3
96,2,0,0,0.29837459794214805,0.6532788276672363,2.8272011280059814,6,False,3,4
97,2,1,3,0,0,10.125595808029175,4,True,3,5
98,1,0,1,0.27392155439640703,0.742894172668457,4.070157051086426,2,False,3,6
99,1,1,3,0,0,0.40707898139953613,6,True,3,7
100,0,0,0,0.11621488161841681,0.4295539855957031,2.784621000289917,4,False,3,8
101,2,0,0,0.10050727159505005,2.5412051677703857,4.9462831020355225,2,False,3,9
102,1,0,0,0.2411723643940654,1.256392002105713,2.83516788482666,8,False,3,10
103,0,0,0,0.11937327713049525,0.5696208477020264,1.6598711013793945,4,False,3,11
104,2,0,0,0.2043143876576932,0.5987050533294678,1.070775032043457,6,False,3,12
105,2,1,1,0.36192629030721046,0.5867829322814941,2.7642319202423096,2,False,3,13
106,1,0,1,0.10181613275761021,0.5620789527893066,4.1337730884552,8,False,3,14
107,1,1,3,0,0,0.5758748054504395,6,True,3,15
108,2,1,1,0.30063927793710105,0.4933319091796875,2.35899019241333,2,False,3,16
109,2,1,3,0,0,10.37483811378479,7,True,3,17
110,0,1,0,0.269982323473285,0.5010910034179688,2.940268039703369,5,False,3,18
111,1,1,1,0.16570117923765432,0.7061381340026855,2.601473093032837,2,False,3,19
112,1,1,3,0,0,0.4691019058227539,9,True,3,20
113,2,0,0,0.14650883686679914,0.6319761276245117,4.1106109619140625,1,False,3,21
114,1,0,0,0.17068742373290352,0.6642451286315918,3.5280580520629883,3,False,3,22
115,2,1,0,0.2777956469032751,1.108699083328247,4.191943168640137,7,False,3,23
116,1,1,3,0,0,0.8121380805969238,2,True,3,24
117,2,1,1,0.3155798318988653,0.7505731582641602,8.485726118087769,8,False,3,25
118,2,0,0,0.25318244843440896,1.3783068656921387,3.5457799434661865,6,False,3,26
119,2,0,0,0.2630224552120296,1.292876958847046,3.4272568225860596,3,False,3,27
120,0,1,1,0.13338937374091347,1.4388761520385742,3.808885097503662,9,False,3,28
121,0,0,0,0.36426152712815607,1.1209838390350342,4.310218095779419,8,False,3,29
122,2,1,3,0,0,10.371926069259644,7,True,3,30
123,0,1,0,0.36072636893449916,1.0535879135131836,4.280177116394043,3,False,3,31
124,2,1,1,0.38005477286240785,1.2272098064422607,7.239227056503296,6,False,3,32
125,2,0,1,0.38156184353861156,1.0184779167175293,2.9419891834259033,8,False,3,33
126,2,0,0,0.11623534245253697,1.0604619979858398,1.2962779998779297,5,False,3,34
127,0,0,0,0.2619653608674739,1.1453781127929688,0.6231420040130615,9,False,3,35
128,2,0,0,0.1988061813467848,0.5442981719970703,2.6755189895629883,2,False,3,36
