trial,interactor,cooling,response,listened,hypothesis,confidence,time_delay,reaction_time,stimulus_time,position,failed,n_block,within_block_counter
1,1,1,0,no ,no ,0.76,0.24242439724872183,2.442049026489258,1.0186731815338135,6,False,1,1
2,0,0,0,no ,no ,0.61,0.28907263178447684,2.384397029876709,0.9928221702575684,8,False,1,2
3,0,0,0,no ,no ,0.45,0.15113169416090025,7.672552108764648,0.9590888023376465,4,False,1,3
4,1,0,0,no ,no ,0.89,0.2740351421344475,2.6064770221710205,1.3026208877563477,2,False,1,4
5,0,1,1,yes ,yes ,0.99,0.22625096573541553,2.8866541385650635,1.250312089920044,6,False,1,5
6,0,1,1,yes ,yes ,0.99,0.3584543924157564,2.921828031539917,1.3613340854644775,7,False,1,6
7,0,1,1,yes ,yes ,0.99,0.21361336975309603,2.890800952911377,1.4234271049499512,2,False,1,7
8,0,0,0,no ,no ,0.82,0.1430462513205162,2.3633880615234375,1.6528630256652832,6,False,1,8
9,1,1,1,yes ,yes ,0.93,0.18913656905763587,2.5661299228668213,1.8500597476959229,7,False,1,9
10,1,1,1,yes ,yes ,0.98,0.24001321562869782,6.774786949157715,1.5594549179077148,2,False,1,10
11,0,0,0,no ,no ,0.84,0.3794000152159689,2.5393753051757812,1.1814448833465576,6,False,1,11
12,1,1,1,yes ,yes ,0.99,0.3965954405122115,2.93172025680542,2.023008108139038,8,False,1,12
13,1,1,1,yes ,yes ,0.99,0.24725008031869097,2.8681180477142334,1.6780312061309814,2,False,1,13
14,0,1,1,yes ,yes ,0.99,0.1915774743384708,3.0518908500671387,1.6442418098449707,4,False,1,14
15,1,1,0,no ,no ,0.79,0.20133080668216147,2.3956170082092285,1.784614086151123,6,False,1,15
16,0,1,1,yes ,yes ,0.99,0.1807770308369255,2.778095006942749,1.664228916168213,8,False,1,16
17,0,1,1,yes ,yes ,0.99,0.36568347647961863,2.7893288135528564,2.831631898880005,4,False,1,17
18,1,0,0,no ,no ,0.82,0.2747612531777144,2.4993021488189697,1.5275609493255615,2,False,1,18
19,1,0,0,no ,no ,0.74,0.36283420958392665,7.3773229122161865,1.6475539207458496,9,False,1,19
20,1,0,0,no ,no ,0.9,0.1501762815993733,2.77229905128479,1.657109022140503,4,False,1,20
21,1,0,0,no ,no ,0.84,0.1443243338941533,2.6324100494384766,1.648832082748413,3,False,1,21
22,0,1,1,yes ,yes ,0.99,0.3366070855948481,3.087813138961792,2.356327772140503,8,False,1,22
23,1,0,0,no ,no ,0.82,0.16741106852900003,5.528281927108765,1.9808869361877441,1,False,1,23
24,1,0,0,no ,no ,0.78,0.17318984750501942,2.670485019683838,2.045114755630493,3,False,1,24
25,0,0,0,no ,no ,0.91,0.17095644601417564,2.6088950634002686,1.7546849250793457,8,False,1,25
26,1,1,1,yes ,yes ,0.99,0.27630357570649267,3.8233258724212646,2.167487144470215,1,False,1,26
27,0,0,0,no ,no ,0.86,0.16883371467969505,3.3096330165863037,0.9968838691711426,6,False,1,27
28,1,0,0,no ,no ,0.91,0.26482901919882,2.6618030071258545,1.5868608951568604,8,False,1,28
29,0,1,0,no ,no ,0.9,0.38565471439970644,2.6015920639038086,2.574047088623047,1,False,1,29
30,1,0,0,no ,no ,0.9,0.3686710418359307,2.572765827178955,1.9883708953857422,3,False,1,30
31,1,1,1,yes ,yes ,0.9,0.1815976486392616,2.8370068073272705,3.67448091506958,7,False,1,31
32,1,1,0,no ,no ,0.46,0.1146021457565987,3.2900826930999756,2.742051124572754,9,False,1,32
33,1,0,0,no ,no ,0.86,0.3011220815883931,3.461364984512329,1.3036038875579834,5,False,1,33
34,1,1,0,no ,no ,0.89,0.302180760697488,2.719566822052002,2.187680959701538,7,False,1,34
35,1,0,0,no ,no ,0.96,0.22351520989725154,2.735206127166748,2.2158119678497314,3,False,1,35
36,0,0,0,no ,no ,0.85,0.20085844247311896,2.80458402633667,2.074982166290283,5,False,1,36
37,1,0,0,no ,no ,0.92,0.19628793098548247,2.793048858642578,2.012529134750366,7,False,1,37
38,0,0,0,no ,no ,0.87,0.28536682132566416,2.8251898288726807,1.5976660251617432,9,False,1,38
39,1,1,1,yes ,yes ,0.64,0.3235691405065334,2.854849100112915,3.074249029159546,1,False,1,39
40,0,0,0,no ,no ,0.73,0.3956431290731415,2.8469982147216797,1.7630088329315186,7,False,1,40
41,0,0,0,no ,no ,0.76,0.35104571913743776,2.587303876876831,1.5303528308868408,5,False,1,41
42,0,0,0,no ,no ,0.8,0.392817068704172,2.5435781478881836,1.7363848686218262,9,False,1,42
43,0,0,0,no ,no ,0.66,0.1259889512249995,3.3216729164123535,1.0323870182037354,7,False,1,43
44,1,0,0,no ,no ,0.58,0.37833431339512535,2.548431634902954,1.3942689895629883,1,False,1,44
45,1,0,0,no ,no ,0.9,0.34809058843886814,2.490032196044922,1.5409631729125977,9,False,1,45
46,1,1,0,no ,no ,0.85,0.30843582035127537,2.3980417251586914,3.5725247859954834,3,False,1,46
47,1,1,1,yes ,yes ,0.99,0.2455179249127543,2.8820109367370605,3.4930760860443115,5,False,1,47
48,1,0,0,no ,no ,0.89,0.2927020836093214,2.401920795440674,1.627108097076416,9,False,1,48
49,0,0,0,no ,no ,0.55,0.36262215153748123,1.619419813156128,1.9032580852508545,1,False,1,49
50,0,0,0,no ,no ,0.9,0.16589527052233435,2.9068751335144043,2.1331400871276855,5,False,1,50
51,0,0,0,no ,no ,0.86,0.3241581980636977,2.4641001224517822,2.6214258670806885,7,False,1,51
52,0,1,1,yes ,yes ,0.99,0.33906769474117626,2.817138910293579,4.498114109039307,9,False,1,52
53,1,1,1,yes ,yes ,0.99,0.20601706360674682,2.848090171813965,3.192214012145996,5,False,1,53
54,0,1,0,no ,no ,0.86,0.2876816140817354,2.538346290588379,4.1003947257995605,3,False,1,54
55,0,0,0,no ,no ,0.9,0.31878533875986403,2.5616297721862793,1.866748332977295,1,False,1,55
56,1,0,0,no ,no ,0.74,0.15388073137341535,2.644796133041382,1.7342472076416016,5,False,1,56
57,1,0,0,no ,no ,0.81,0.19927562575664576,2.8854949474334717,1.9293460845947266,9,False,2,0
58,1,0,0,no ,no ,0.76,0.25143891366266724,2.5654232501983643,2.716625213623047,1,False,2,1
59,1,1,1,yes ,yes ,0.99,0.21110147160112216,2.5894813537597656,2.1280598640441895,3,False,2,2
60,0,1,1,yes ,yes ,0.98,0.129431408624929,3.0236949920654297,1.2569010257720947,8,False,2,3
61,1,0,0,no ,no ,0.37,0.27766050886885396,2.6648550033569336,2.7894930839538574,4,False,2,4
62,1,1,1,yes ,yes ,0.99,0.3785657470619852,2.651442289352417,1.7190828323364258,2,False,2,5
63,1,1,1,yes ,yes ,0.97,0.3856177161334807,2.792534112930298,1.7008812427520752,9,False,2,6
64,0,1,0,no ,no ,0.84,0.1383039238498841,2.7662620544433594,2.1055519580841064,4,False,2,7
65,0,1,1,yes ,yes ,0.99,0.2802108216799464,3.0436460971832275,1.183117151260376,2,False,2,8
66,1,1,0,no ,no ,0.88,0.21562538392115285,2.527324914932251,1.6459619998931885,6,False,2,9
67,1,0,0,no ,no ,0.91,0.1875241134473576,2.580015182495117,2.0770699977874756,4,False,2,10
68,0,0,0,no ,no ,0.98,0.17848882971514796,2.6622231006622314,1.4922780990600586,8,False,2,11
69,0,0,0,no ,no ,0.89,0.28157820152131063,2.539707899093628,1.763706922531128,6,False,2,12
70,1,1,1,yes ,yes ,0.99,0.39170522872657765,2.7668118476867676,4.067314147949219,1,False,2,13
71,0,1,0,no ,no ,0.87,0.2580178827209972,2.412402868270874,2.258620023727417,8,False,2,14
72,0,1,1,yes ,yes ,0.98,0.2275377583558537,6.932621002197266,2.572923183441162,6,False,2,15
73,1,0,0,no ,no ,0.9,0.125884038221378,2.452467918395996,1.5164070129394531,4,False,2,16
74,0,1,0,no ,no ,0.84,0.24468858489015388,2.523587703704834,1.7053699493408203,2,False,2,17
75,0,1,0,no ,no ,0.9,0.34850018388095716,2.640425205230713,2.2777750492095947,8,False,2,18
76,1,0,0,no ,no ,0.9,0.23855473776972339,2.350086212158203,1.7630047798156738,6,False,2,19
77,0,1,1,yes ,yes ,0.99,0.24181737829626035,2.7682902812957764,1.9242401123046875,2,False,2,20
78,0,1,0,no ,no ,0.93,0.13650795048833234,2.5293102264404297,4.3642802238464355,4,False,2,21
79,1,1,1,yes ,yes ,0.99,0.10799127676096727,2.728004217147827,2.3882791996002197,9,False,2,22
80,0,0,0,no ,no ,0.47,0.12012893022874072,2.6201837062835693,1.2682077884674072,2,False,2,23
81,0,0,0,no ,no ,0.87,0.27287698890155543,2.475841999053955,2.0992321968078613,7,False,2,24
82,1,1,1,yes ,yes ,0.99,0.3673419686139654,2.73966383934021,3.950608015060425,9,False,2,25
83,1,1,1,yes ,yes ,0.99,0.15293142074535226,2.7249720096588135,3.853343963623047,5,False,2,26
84,0,0,0,no ,no ,0.91,0.1396772679526634,2.4028420448303223,1.9757370948791504,3,False,2,27
85,0,0,0,no ,no ,0.99,0.13430981530526798,2.700767993927002,1.3740947246551514,1,False,2,28
86,0,1,1,yes ,yes ,0.99,0.3238091475805069,2.832540988922119,5.495667934417725,7,False,2,29
87,1,1,1,yes ,yes ,0.99,0.25317662160457777,2.935656785964966,4.001841068267822,5,False,2,30
88,1,0,0,no ,no ,0.8,0.1927929026070886,2.473814010620117,2.122666120529175,3,False,2,31
89,1,1,0,no ,no ,0.87,0.3436510455272862,2.8174068927764893,3.6572349071502686,9,False,2,32
90,1,1,1,yes ,yes ,0.99,0.1736864285659127,5.89122200012207,3.9127233028411865,5,False,2,33
91,0,0,0,no ,no ,0.83,0.26739273584640677,2.672550916671753,1.627774953842163,7,False,2,34
92,1,1,0,no ,no ,0.84,0.310383654732019,2.658519983291626,7.127468824386597,3,False,2,35
93,1,0,0,no ,no ,0.88,0.2787233343663146,2.7154951095581055,2.3046679496765137,1,False,2,36
94,0,0,0,no ,no ,0.88,0.19229216219663753,2.60249400138855,1.7310490608215332,5,False,2,37
95,0,0,0,no ,no ,0.85,0.37419349458251805,2.6780307292938232,4.15331506729126,7,False,2,38
96,0,1,0,no ,no ,0.77,0.2516873158887109,2.726020097732544,4.837366819381714,3,False,2,39
97,1,0,0,no ,no ,0.91,0.26281206234404286,2.596179962158203,3.280555009841919,5,False,2,40
98,0,1,1,yes ,yes ,0.99,0.30138991875850724,2.8440639972686768,5.918825149536133,1,False,2,41
99,0,1,0,no ,no ,0.8,0.38851847233021586,2.7402238845825195,3.8324999809265137,3,False,2,42
100,0,1,0,no ,no ,0.71,0.15499256278368959,3.2504971027374268,4.20194411277771,8,False,2,43
101,0,0,0,no ,no ,0.87,0.34921046193332017,2.447110176086426,1.994326114654541,4,False,2,44
102,1,0,0,no ,no ,0.88,0.13709658916842685,2.683635950088501,1.90083909034729,6,False,2,45
103,1,0,1,yes yes ,yes yes ,0.72,0.21935098506217796,3.374746084213257,1.4562890529632568,8,False,2,46
104,0,1,0,no ,no ,0.92,0.23230302156117127,2.4729979038238525,5.820648908615112,4,False,2,47
105,0,0,0,no ,no ,0.9,0.26916385257002784,2.6108620166778564,1.7151708602905273,2,False,2,48
106,1,1,0,no ,no ,0.97,0.3769278749262588,2.570146083831787,5.131678819656372,6,False,2,49
107,0,1,3,0,0,0,0,0,10.293381929397583,4,True,2,50
108,0,1,0,no ,no ,0.9,0.2598830787956323,2.6457271575927734,4.976096868515015,2,False,2,51
109,0,1,0,no ,no ,0.88,0.3201808643416434,2.576385974884033,7.794740915298462,4,False,2,52
