trial,interactor,cooling,response,time_delay,reaction_time,stimulus_time,position,failed,n_block,within_block_counter
1,1,1,3,0,0,1.2851366996765137,5,True,1,1
2,0,0,1,0.2576414129406348,0.8112530708312988,2.0523929595947266,1,False,1,2
3,0,0,1,0.2730865297719031,0.6975588798522949,2.1318957805633545,7,False,1,3
4,1,0,0,0.21356380245202883,0.6961469650268555,2.3917768001556396,3,False,1,4
5,1,1,3,0,0,1.8622241020202637,9,True,1,5
6,0,1,1,0.20090645631799925,0.7015271186828613,1.1019551753997803,4,False,1,6
7,0,1,1,0.22841208229964538,0.8580348491668701,1.3663220405578613,3,False,1,7
8,1,1,3,0,0,1.6576588153839111,9,True,1,8
9,1,1,1,0.15120698046326161,0.7648530006408691,1.256974220275879,5,False,1,9
10,0,1,1,0.37537653319366115,0.5107090473175049,1.4013822078704834,3,False,1,10
11,1,1,1,0.39904491102879525,0.7068181037902832,0.9875168800354004,9,False,1,11
12,2,1,1,0.3838987969042945,0.695101261138916,2.164757013320923,4,False,1,12
13,0,0,0,0.20318188813135654,0.6479089260101318,1.491283893585205,2,False,1,13
14,0,0,1,0.25290498721386745,1.1130340099334717,1.1685030460357666,8,False,1,14
15,2,0,0,0.3578761759611444,1.0613360404968262,1.4745640754699707,4,False,1,15
16,2,1,1,0.22156336702591278,0.5962450504302979,2.148705005645752,2,False,1,16
17,1,0,1,0.21160387285459867,1.0000317096710205,1.8406031131744385,9,False,1,17
18,2,0,1,0.2166916263236302,0.5909759998321533,2.3697290420532227,4,False,1,18
19,1,0,0,0.30424450461315744,0.6656031608581543,2.4397521018981934,2,False,1,19
20,2,0,1,0.3841171574261978,0.688173770904541,2.372652053833008,6,False,1,20
21,0,1,1,0.17673688796590642,0.5110268592834473,1.331786870956421,8,False,1,21
22,0,0,0,0.1027270231986767,0.6565220355987549,1.3890459537506104,4,False,1,22
23,2,1,1,0.10637020347524649,0.3664572238922119,1.7187228202819824,2,False,1,23
24,0,0,1,0.18872998073739644,0.6575360298156738,1.5251212120056152,9,False,1,24
25,1,0,1,0.3003864804342519,1.1167311668395996,1.0576450824737549,7,False,1,25
26,2,0,1,0.33337006161039884,0.7064850330352783,1.6451599597930908,5,False,1,26
27,0,0,1,0.2845262050144376,0.7157621383666992,1.6284730434417725,1,False,1,27
28,1,1,1,0.10693705946999749,0.3183097839355469,1.5566561222076416,7,False,1,28
29,0,1,0,0.1398846522671482,0.84120774269104,1.7976887226104736,6,False,1,29
30,2,1,1,0.34760234757938213,0.6289358139038086,2.501667022705078,2,False,1,30
31,2,0,1,0.2856671111728013,0.32114577293395996,1.685554027557373,4,False,1,31
32,1,1,0,0.15039424446860009,0.6731560230255127,2.947333812713623,9,False,1,32
33,2,1,1,0.1758353172463894,0.4148867130279541,1.9619140625,3,False,1,33
34,2,0,0,0.38599287895668666,0.6280388832092285,2.0419058799743652,1,False,1,34
35,2,0,1,0.34012124114125886,0.3114309310913086,1.4937400817871094,8,False,1,35
36,0,1,1,0.25743617211195896,0.0524747371673584,1.4356122016906738,3,False,1,36
37,2,0,0,0.255222090316928,0.8530750274658203,1.2924180030822754,1,False,1,37
38,0,1,1,0.1525838443063451,0.7187888622283936,1.3449161052703857,5,False,1,38
39,0,1,1,0.2912261732992857,0.8596670627593994,2.3153269290924072,7,False,1,39
40,1,0,1,0.13933095535314924,0.48641180992126465,2.1631906032562256,9,False,1,40
41,1,1,0,0.28479459785664063,0.8036658763885498,0.991858720779419,5,False,1,41
42,2,0,1,0.2771421642256051,0.38309621810913086,2.1741580963134766,1,False,1,42
43,1,0,1,0.33295870476182343,0.4307548999786377,2.306830883026123,3,False,1,43
44,1,1,1,0.1932904384501668,0.3023560047149658,2.0088131427764893,7,False,1,44
45,1,1,1,0.34692760781127735,0.3410370349884033,1.5809118747711182,1,False,1,45
46,2,1,1,0.10529947256606566,0.4103100299835205,1.4811019897460938,3,False,1,46
47,1,1,0,0.2524415809972189,0.9827630519866943,1.4941117763519287,5,False,1,47
48,2,1,1,0.2533970303911245,0.47931790351867676,2.227140188217163,1,False,1,48
49,1,1,1,0.2155033051207828,0.4267160892486572,2.8275609016418457,7,False,1,49
50,2,1,1,0.3294761166337462,0.5363960266113281,2.621807813644409,6,False,1,50
51,2,0,1,0.17187851291604173,0.3480958938598633,2.348123788833618,2,False,1,51
52,1,0,0,0.25306974839635155,0.9933807849884033,1.584197998046875,8,False,1,52
53,0,0,0,0.3058464497551482,0.7056472301483154,2.6659321784973145,6,False,1,53
54,2,0,1,0.13255639906338185,0.33587098121643066,2.6020307540893555,2,False,1,54
55,1,1,1,0.17830960728944079,0.4325859546661377,3.6355249881744385,4,False,1,55
56,0,1,3,0,0,0.39630913734436035,8,True,1,56
57,0,0,1,0.38168986453981824,0.47678375244140625,2.0145390033721924,6,False,1,57
58,0,1,1,0.2035173318570056,0.30168795585632324,3.06209397315979,4,False,1,58
59,2,1,1,0.22322664779324874,0.4196810722351074,0.4008650779724121,8,False,1,59
60,2,0,1,0.2175377340854806,0.8365440368652344,1.906545877456665,6,False,1,60
61,2,1,1,0.16334678590266,0.25202083587646484,2.7517879009246826,1,False,1,61
62,0,0,1,0.3980288819258192,0.3184168338775635,3.6635959148406982,7,False,1,62
63,2,1,1,0.2659183564834756,0.7868859767913818,3.0385541915893555,3,False,1,63
64,1,0,0,0.25256732515959407,0.7599611282348633,1.8647661209106445,1,False,1,64
65,2,1,1,0.12966940045823624,0.4349172115325928,3.8353657722473145,7,False,1,65
66,0,1,0,0.28319392347360095,0.7372848987579346,0.738929033279419,5,False,1,66
67,2,0,0,0.17940048645653142,0.5659492015838623,2.468780994415283,3,False,1,67
68,2,0,1,0.38024567065807235,1.0537331104278564,1.747239112854004,9,False,2,0
69,1,0,0,0.2532667385217785,0.9410669803619385,1.7874412536621094,7,False,2,1
70,0,0,0,0.33505224623802343,0.8559238910675049,2.1741838455200195,5,False,2,2
71,1,1,1,0.30137075514878464,0.6913561820983887,1.4425110816955566,9,False,2,3
72,0,0,1,0.16402010962866403,0.44102931022644043,2.8127150535583496,7,False,2,4
73,1,0,0,0.27862523026947844,0.5441250801086426,3.1225810050964355,5,False,2,5
74,1,1,1,0.33763408044562093,0.4687838554382324,0.9778778553009033,1,False,2,6
75,0,1,1,0.26586320143416164,0.30025672912597656,0.9899468421936035,9,False,2,7
76,1,1,1,0.2842362228860559,0.4490981101989746,1.1757829189300537,5,False,2,8
77,1,0,1,0.32158270706465053,0.5476710796356201,1.1099910736083984,3,False,2,9
78,0,1,1,0.3664208111245819,0.6101589202880859,1.2125270366668701,1,False,2,10
79,2,1,3,0,0,1.3340940475463867,5,True,2,11
80,0,0,1,0.19452790123897634,0.7772479057312012,1.528904914855957,7,False,2,12
81,1,1,1,0.283692188765577,0.39090800285339355,1.1555571556091309,9,False,2,13
82,0,0,0,0.26926182487861383,0.9486148357391357,2.3593761920928955,2,False,2,14
83,0,1,1,0.2999132405429498,0.5663599967956543,1.306771993637085,4,False,2,15
84,0,1,1,0.16389838727636835,0.7135741710662842,0.8795042037963867,8,False,2,16
85,2,0,1,0.18980648925349128,0.9055290222167969,1.636174201965332,2,False,2,17
86,1,0,0,0.25260503775982057,1.2255361080169678,1.857776165008545,4,False,2,18
87,0,1,1,0.3119206829665033,1.120337963104248,1.2841269969940186,6,False,2,19
88,1,0,0,0.22775151306074606,0.6814320087432861,3.9679160118103027,8,False,2,20
89,0,0,0,0.3823089640837687,1.4705119132995605,2.367845058441162,4,False,2,21
90,2,0,1,0.39119815703470817,0.5694499015808105,2.2791481018066406,6,False,2,22
91,2,0,0,0.24870131955350408,0.7980842590332031,2.222905158996582,8,False,2,23
92,0,0,1,0.27861077385309096,1.3143658638000488,1.4120292663574219,4,False,2,24
93,1,0,1,0.24053676208865907,0.6278951168060303,2.693000078201294,6,False,2,25
94,2,1,1,0.11870282271741375,0.3843221664428711,3.1765151023864746,2,False,2,26
95,1,0,1,0.13199631202370662,1.1500489711761475,1.098724126815796,8,False,2,27
96,0,0,1,0.30732706937218424,0.3491482734680176,1.3859119415283203,6,False,2,28
97,0,1,0,0.22510244257321094,1.0693182945251465,0.6392707824707031,2,False,2,29
98,2,0,1,0.11750125625878854,0.3419380187988281,2.256337881088257,8,False,2,30
99,2,1,1,0.31468721218315127,0.4875221252441406,2.6350300312042236,6,False,2,31
100,1,1,1,0.27417130691081376,0.5797412395477295,2.851155996322632,2,False,2,32
101,1,1,0,0.17823045072140098,1.1438672542572021,1.123702049255371,8,False,2,33
102,2,1,1,0.2772957910930763,0.4426422119140625,2.9801478385925293,6,False,2,34
103,0,1,1,0.3350171918485968,0.875690221786499,0.7267000675201416,1,False,2,35
104,0,1,1,0.36058463008149755,0.5995850563049316,1.289228916168213,7,False,2,36
105,1,0,1,0.1382574443269311,0.6630887985229492,2.5669140815734863,3,False,2,37
106,2,1,1,0.20894063196608134,0.504256010055542,1.7666943073272705,9,False,2,38
107,2,1,1,0.11633134734710013,1.0700268745422363,0.42554402351379395,5,False,2,39
108,0,1,0,0.18768932587234538,0.5476081371307373,1.3477799892425537,3,False,2,40
109,2,1,1,0.15886761778719677,0.44524168968200684,1.932129144668579,7,False,2,41
110,0,0,0,0.291769818988474,0.5620269775390625,2.5186350345611572,8,False,2,42
111,0,0,0,0.15476681966491965,0.8039371967315674,1.1918010711669922,9,False,2,43
112,1,1,1,0.2451766799063223,0.4397871494293213,3.1661558151245117,6,False,2,44
113,0,1,1,0.25954887395880155,0.5847182273864746,1.1575651168823242,5,False,2,45
114,1,0,0,0.3916701901371219,1.0671002864837646,1.6848878860473633,4,False,2,46
115,1,0,1,0.24819692370137617,0.5792231559753418,2.99255108833313,2,False,3,0
116,1,0,1,0.20286140871107738,0.3804159164428711,3.291548013687134,1,False,3,1
117,2,0,1,0.11753674868530473,0.39461207389831543,1.2996799945831299,7,False,3,2
118,0,0,0,0.28821645910356813,0.8150200843811035,2.1417019367218018,4,False,3,3
119,0,1,1,0.25324623683508607,0.5030620098114014,0.7991790771484375,9,False,3,4
120,1,0,1,0.1256219425212381,0.5797531604766846,2.96174693107605,3,False,3,5
121,2,0,0,0.16052364866343483,0.4996769428253174,2.8383359909057617,6,False,3,6
122,2,0,1,0.263297843737621,0.4043393135070801,2.9334311485290527,8,False,3,7
123,0,0,0,0.2239094308541297,0.4134352207183838,2.4242258071899414,5,False,3,8
124,2,1,1,0.10381244498347819,0.42836904525756836,1.7270560264587402,7,False,3,9
125,2,0,1,0.23793570138633133,0.32814931869506836,1.5315568447113037,1,False,3,10
126,0,1,1,0.1220050550065508,0.3979759216308594,0.8928823471069336,9,False,3,11
127,0,0,1,0.3576245893105985,0.3913300037384033,3.8157870769500732,5,False,3,12
128,1,1,0,0.34148879564708357,0.7022511959075928,1.289482831954956,4,False,3,13
129,2,0,0,0.2744717491968834,0.7079260349273682,3.0102131366729736,3,False,3,14
130,1,1,3,0,0,0.6694991588592529,2,True,3,15
131,1,1,0,0.3732078248722972,0.8929400444030762,1.4340860843658447,8,False,3,16
132,1,1,1,0.3999569133116033,0.5718269348144531,1.7143030166625977,1,False,3,17
133,2,1,1,0.2484015506132169,0.3015708923339844,1.0633947849273682,9,False,3,18
134,2,1,1,0.31391431863204766,0.3157360553741455,1.3714110851287842,5,False,3,19
135,2,1,1,0.15655759115075973,0.2784998416900635,1.9990730285644531,8,False,3,20
136,1,1,0,0.10550158874675886,0.6409621238708496,2.6290769577026367,7,False,3,21
137,2,1,0,0.10969299099486085,0.8703780174255371,1.5211482048034668,2,False,3,22
138,2,1,1,0.27800280819261225,0.2836289405822754,1.2891790866851807,3,False,3,23
139,1,1,3,0,0,10.131334781646729,5,True,3,24
140,2,0,1,0.3145071743267537,0.4039130210876465,2.3990490436553955,4,False,3,25
141,2,1,1,0.3651393584910203,0.33115124702453613,2.1007561683654785,1,False,3,26
142,2,0,1,0.3498063194469533,0.4000377655029297,2.367872953414917,8,False,3,27
143,0,1,1,0.12820635366788233,0.6066858768463135,1.648669958114624,6,False,3,28
144,0,0,1,0.13237185448689553,0.33002591133117676,2.9692249298095703,2,False,3,29
145,0,1,1,0.3063831617966061,0.5399150848388672,2.2454710006713867,3,False,3,30
146,0,0,0,0.35425359372376697,0.9411420822143555,0.8028750419616699,1,False,3,31
147,2,0,0,0.34443428852784164,0.5508580207824707,1.4726388454437256,5,False,3,32
148,2,1,1,0.22925197239335912,0.33376598358154297,3.1597790718078613,7,False,3,33
149,0,1,1,0.363389574161575,0.47577381134033203,2.7160298824310303,2,False,3,34
150,1,0,1,0.2055155369904695,0.4157071113586426,1.4281187057495117,4,False,3,35
151,1,0,1,0.24287436911998278,0.30680298805236816,1.8265659809112549,6,False,3,36
152,0,0,1,0.2494837224719326,0.42621397972106934,1.745506763458252,5,False,3,37
153,1,0,1,0.30069387185829155,0.3096451759338379,2.1125149726867676,7,False,3,38
154,1,0,1,0.12751458445451033,0.3201332092285156,1.295154333114624,3,False,3,39
155,0,0,1,0.21468316440648544,0.29402804374694824,2.560596227645874,6,False,3,40
156,0,1,1,0.3276101260993191,0.3114778995513916,2.08923602104187,4,False,3,41
157,0,1,1,0.2594459496746835,0.6179778575897217,1.1997077465057373,9,False,4,0
158,1,0,1,0.1495418523249024,0.47191810607910156,2.4143588542938232,5,False,4,1
159,1,0,1,0.19204523876590313,0.3636748790740967,2.843801259994507,3,False,4,2
160,2,0,0,0.2904952142379552,0.5551307201385498,3.5485119819641113,8,False,4,3
161,1,1,1,0.2865696565271818,0.4086337089538574,0.9621269702911377,4,False,4,4
162,1,1,1,0.1456901293841952,0.3576831817626953,1.0897738933563232,9,False,4,5
163,1,0,0,0.2507813604564173,0.8589026927947998,1.70167875289917,2,False,4,6
164,1,1,1,0.23733474799625476,0.5528509616851807,1.2914888858795166,6,False,4,7
165,1,1,1,0.24852708355794073,0.286790132522583,1.469679832458496,3,False,4,8
166,1,1,1,0.39322558481546765,0.3026421070098877,1.4762039184570312,8,False,4,9
167,0,0,0,0.30270153809956624,1.159848928451538,0.4112231731414795,1,False,4,10
168,1,1,1,0.3169583066649736,0.3875420093536377,0.9350688457489014,5,False,4,11
169,2,1,3,0,0,1.3147509098052979,4,True,4,12
170,2,1,1,0.343496394137502,0.5573480129241943,1.941277027130127,7,False,4,13
