trial,interactor,cooling,response,time_delay,reaction_time,stimulus_time,position,failed,n_block,within_block_counter
1,2,1,1,0.2596755077736682,0.48436498641967773,1.3469350337982178,1,False,1,1
2,1,1,1,0.22688467284632613,1.686955213546753,1.0385510921478271,9,False,1,2
3,0,0,0,0.18999635315387287,1.6545078754425049,1.334486961364746,3,False,1,3
4,2,0,0,0.2648138367474082,0.8659539222717285,1.4764091968536377,5,False,1,4
5,0,0,0,0.1722112792308075,0.9322328567504883,1.3942370414733887,7,False,1,5
6,0,1,1,0.3961333673418198,0.3437919616699219,1.9594428539276123,1,False,1,6
7,2,0,0,0.15002487253986552,0.16013407707214355,1.3228139877319336,5,False,1,7
8,1,1,1,0.1770877837121494,1.1733241081237793,1.3772690296173096,3,False,1,8
9,1,1,1,0.27298355537606794,0.4627377986907959,1.5700500011444092,9,False,1,9
10,2,1,0,0.1905257006545187,0.41869497299194336,2.380648136138916,7,False,1,10
11,2,0,0,0.1265527745293667,0.5036201477050781,1.6331672668457031,5,False,1,11
12,2,0,0,0.3904321043066198,0.9847898483276367,2.1579220294952393,3,False,1,12
13,0,1,1,0.373034582241209,0.9042448997497559,2.734466075897217,1,False,1,13
14,0,1,1,0.3149884302347866,1.722440242767334,1.5407328605651855,5,False,1,14
15,2,0,0,0.3514779095126689,0.9238801002502441,1.6700031757354736,7,False,1,15
16,2,1,0,0.20602741681948925,0.2869102954864502,1.0636143684387207,9,False,1,16
17,0,1,1,0.14050717659149947,0.907660961151123,2.6689960956573486,3,False,1,17
18,0,0,0,0.13576799921968905,0.5255630016326904,1.369185209274292,7,False,1,18
19,2,0,0,0.22345383991134743,0.592634916305542,2.7351160049438477,5,False,1,19
20,2,1,0,0.38663376763270285,0.81461501121521,1.8122448921203613,9,False,1,20
21,0,0,0,0.20645092566245354,0.8964402675628662,1.50229811668396,1,False,1,21
22,2,0,0,0.10341908048211329,0.9669640064239502,2.859199047088623,5,False,1,22
23,0,0,0,0.3083466003984833,0.5614371299743652,1.3055176734924316,7,False,1,23
24,1,0,0,0.2254816975916833,0.5313758850097656,1.8862359523773193,1,False,1,24
25,0,0,0,0.3450532236434125,0.7645642757415771,1.4033162593841553,6,False,1,25
26,2,0,0,0.21022411741140273,0.5804378986358643,0.9901509284973145,8,False,1,26
27,1,1,0,0.31827010111348053,1.4728398323059082,3.485269069671631,2,False,1,27
28,2,0,0,0.12320297448226311,1.2523882389068604,1.4414269924163818,4,False,1,28
29,0,1,1,0.25900744609153503,0.4886648654937744,1.9370801448822021,6,False,1,29
30,1,0,0,0.38709946206749735,0.5731480121612549,1.320603847503662,8,False,1,30
31,1,1,1,0.2733853329938321,0.7160320281982422,4.3506481647491455,4,False,1,31
32,2,0,0,0.26364228562596503,0.7720272541046143,2.585930109024048,2,False,1,32
33,1,0,0,0.14314468601200037,0.6560020446777344,1.4931762218475342,9,False,1,33
34,2,0,0,0.24537858146955432,0.5200040340423584,2.364609956741333,4,False,1,34
35,0,1,1,0.1632920676421078,0.4415860176086426,2.5058751106262207,3,False,1,35
36,0,1,0,0.3810870883703904,0.8603200912475586,3.000444173812866,8,False,1,36
37,1,1,1,0.3835043933001907,0.46267080307006836,4.763084173202515,4,False,1,37
38,0,0,0,0.2587621609699679,0.54852294921875,1.3347959518432617,2,False,1,38
39,1,1,1,0.3661641261414291,0.4285402297973633,4.373849153518677,6,False,1,39
40,1,1,0,0.19952191442120543,1.0882160663604736,3.4301419258117676,8,False,1,40
41,2,1,0,0.36682162711056565,1.653775930404663,9.572896003723145,2,False,1,41
42,2,1,0,0.2680271562923029,0.5585222244262695,7.908843994140625,4,False,1,42
43,2,0,0,0.22758167905484983,0.3861980438232422,1.4667401313781738,8,False,1,43
44,1,0,0,0.17352665689865604,1.5428390502929688,1.4364140033721924,2,False,1,44
45,2,0,0,0.14131094629671798,1.0945019721984863,1.825861930847168,6,False,1,45
46,2,1,1,0.26384447345955353,0.7542707920074463,3.636538028717041,7,False,1,46
47,0,1,0,0.2759371067360234,1.5686070919036865,6.2411839962005615,2,False,1,47
48,1,1,1,0.3444226368742441,0.7869911193847656,5.461126327514648,6,False,1,48
49,1,0,0,0.21371968248321663,1.3588190078735352,2.6371419429779053,8,False,1,49
50,2,0,0,0.2538068920188171,0.47063612937927246,2.781744956970215,4,False,1,50
51,0,1,1,0.39087107811243804,0.5319349765777588,4.433542013168335,3,False,1,51
52,0,0,0,0.25965467212822424,1.579246997833252,2.7556638717651367,8,False,1,52
53,2,1,0,0.37898855337282056,0.686985969543457,4.956446170806885,4,False,1,53
54,2,1,1,0.2511395262683041,0.9343490600585938,6.210722208023071,6,False,1,54
55,1,1,0,0.1254507061223582,0.6645858287811279,9.172009944915771,2,False,1,55
56,0,0,0,0.38035927203925823,0.44800615310668945,1.5423932075500488,8,False,2,0
57,1,1,1,0.2754479874833946,0.27396512031555176,1.3580968379974365,6,False,2,1
58,2,1,1,0.12364380380418684,0.23350906372070312,1.3311679363250732,4,False,2,2
59,0,0,0,0.16395677277299353,0.9569950103759766,1.6133098602294922,2,False,2,3
60,2,0,0,0.37104981918788216,1.0580329895019531,1.6682047843933105,6,False,2,4
61,1,0,0,0.27916403950699376,0.8074479103088379,1.4873757362365723,7,False,2,5
62,2,0,0,0.30098351295853326,1.5639300346374512,1.4601900577545166,2,False,2,6
63,2,0,0,0.15352861045143223,0.9029617309570312,1.9272451400756836,9,False,2,7
64,1,1,0,0.31407552429710517,1.5637362003326416,1.6201608180999756,7,False,2,8
65,1,0,0,0.19500859266706985,0.7915248870849609,2.898484945297241,5,False,2,9
66,0,1,1,0.34122401881965664,0.5915098190307617,2.252528190612793,1,False,2,10
67,1,0,0,0.11592703174614301,0.7074370384216309,1.6959679126739502,3,False,2,11
68,1,0,0,0.20003055059543912,0.6935160160064697,4.7561728954315186,8,False,2,12
69,0,0,0,0.25188981806780253,0.7146179676055908,1.325880765914917,1,False,2,13
70,1,0,0,0.13151041309139794,0.45845818519592285,1.8571157455444336,6,False,2,14
71,0,0,0,0.2533398219478755,0.7322812080383301,2.001830816268921,7,False,2,15
72,0,1,1,0.3840669602045679,0.7214999198913574,2.4658329486846924,2,False,2,16
73,1,1,1,0.38884671184706376,0.7999951839447021,2.658507823944092,6,False,2,17
74,1,0,0,0.30132905210263444,0.7967319488525391,2.9579949378967285,8,False,2,18
75,1,1,1,0.1926634864668267,0.803947925567627,3.0934200286865234,4,False,2,19
76,1,0,0,0.2978427734425934,0.5307481288909912,1.6930370330810547,3,False,2,20
77,1,1,0,0.20135955181208387,1.674267053604126,1.7299590110778809,9,False,2,21
78,0,1,0,0.1953852832908735,1.1539268493652344,4.371769905090332,1,False,2,22
79,1,1,1,0.33709363066630005,0.351621150970459,2.6287128925323486,5,False,2,23
80,2,0,0,0.3533295236380213,2.472456216812134,1.5684809684753418,9,False,2,24
81,1,1,1,0.15491670268239166,1.1912579536437988,6.592386960983276,1,False,2,25
82,1,1,0,0.2614037843542316,1.7224457263946533,2.292442798614502,3,False,2,26
83,2,1,0,0.28937094502230243,0.6367669105529785,3.583940029144287,7,False,2,27
84,0,0,0,0.1522184104316243,0.674713134765625,2.268183946609497,5,False,2,28
85,1,0,0,0.2669012046546687,0.5071358680725098,2.143326997756958,1,False,2,29
86,0,0,0,0.23229439091219314,1.2486381530761719,1.7592871189117432,3,False,2,30
87,2,1,1,0.2239291624542312,0.50913405418396,3.1690030097961426,5,False,2,31
88,2,0,0,0.15381094786781466,0.6144018173217773,1.5231389999389648,7,False,2,32
89,2,1,1,0.16217912144714489,0.31053996086120605,3.5040221214294434,3,False,2,33
90,0,1,0,0.18988188911432763,0.7976889610290527,6.578382968902588,1,False,2,34
91,2,1,0,0.19763457758873704,1.3371829986572266,5.082473039627075,5,False,2,35
92,0,0,0,0.29254556634317025,1.1592957973480225,1.4871113300323486,9,False,2,36
93,2,0,0,0.15384287818587095,0.9917922019958496,1.6243829727172852,1,False,2,37
94,1,0,0,0.3510346818250718,1.2186000347137451,1.4354288578033447,5,False,2,38
95,2,1,1,0.30033149825904415,0.43987107276916504,1.5231411457061768,9,False,2,39
96,0,0,0,0.15591087867104642,1.0327398777008057,1.7278499603271484,7,False,2,40
97,0,0,0,0.25142055586932155,0.8485629558563232,2.161733865737915,2,False,2,41
98,2,0,0,0.18642876617838533,0.2997429370880127,1.7552928924560547,9,False,2,42
99,2,0,0,0.27571336769561533,0.2729310989379883,3.3624820709228516,4,False,2,43
100,0,0,0,0.12795834518340748,1.013650894165039,1.5990710258483887,3,False,2,44
101,2,1,1,0.19847984701932417,1.3010830879211426,2.9255900382995605,9,False,2,45
102,1,0,0,0.24401201382188198,0.9497940540313721,1.6230571269989014,4,False,2,46
103,0,0,0,0.12683725581755306,0.5786550045013428,1.7707171440124512,2,False,2,47
104,0,1,1,0.25877970710869846,1.1519558429718018,2.9222099781036377,6,False,2,48
105,0,0,0,0.3039153863172717,0.693425178527832,2.7451369762420654,8,False,2,49
106,2,1,3,0,0,10.422054290771484,4,True,2,50
107,1,0,0,0.16614046403754174,1.2122271060943604,3.467643976211548,6,False,2,51
108,1,0,0,0.16302214033715706,2.371812105178833,1.5594749450683594,8,False,2,52
109,2,0,0,0.20920893410418467,0.7463088035583496,2.997745990753174,7,False,2,53
110,0,1,1,0.19282436522945717,0.5367202758789062,4.261167049407959,5,False,2,54
111,1,1,1,0.1440650670868478,0.4346790313720703,6.169408082962036,4,False,2,55
112,1,0,0,0.2139360133831476,0.5699620246887207,2.2098891735076904,2,False,3,0
113,1,0,0,0.10976469076541456,0.6270327568054199,2.11977481842041,7,False,3,1
114,2,1,3,0,0,1.9730939865112305,8,True,3,2
115,2,1,3,0,0,1.9410510063171387,9,True,3,3
116,0,1,1,0.20975050434257014,0.5470230579376221,1.6508431434631348,4,False,3,4
117,2,1,1,0.22767211708310062,0.5328269004821777,1.3862030506134033,6,False,3,5
118,0,0,0,0.27346459691937464,1.188849925994873,1.1325130462646484,2,False,3,6
119,1,1,0,0.19343871755221148,0.47664880752563477,1.7516059875488281,7,False,3,7
120,0,1,1,0.16299653898757277,0.47359395027160645,2.0830819606781006,4,False,3,8
121,1,1,1,0.2350542499471242,0.4521369934082031,1.3650400638580322,9,False,3,9
122,2,1,1,0.15614377022388115,0.5650818347930908,2.6330370903015137,2,False,3,10
123,2,1,0,0.17371957821257533,0.8539271354675293,2.78269100189209,1,False,3,11
124,1,1,0,0.33148135152897495,0.5707950592041016,1.282073974609375,8,False,3,12
125,0,0,0,0.19528475831321762,0.3472142219543457,2.5110740661621094,3,False,3,13
126,0,1,0,0.34665178416883113,2.8520991802215576,1.2929000854492188,9,False,3,14
127,1,0,0,0.3860157789169325,0.375777006149292,2.8145909309387207,5,False,3,15
128,1,0,0,0.16877263379810603,0.5609221458435059,1.9496512413024902,2,False,3,16
129,0,1,0,0.20492387411004154,0.9971661567687988,2.8388140201568604,7,False,3,17
130,2,0,0,0.28811258552789776,0.6262960433959961,1.6890830993652344,6,False,3,18
131,1,1,0,0.2481685598117076,1.6693389415740967,1.7458178997039795,8,False,3,19
132,0,0,0,0.16140178781860018,0.5356237888336182,2.3260929584503174,2,False,3,20
133,0,1,0,0.27702691821320996,0.4646148681640625,4.436617136001587,1,False,3,21
134,2,1,1,0.18788338991628833,0.4813981056213379,1.621131181716919,3,False,3,22
135,2,0,0,0.1103689088864725,0.29709386825561523,1.9384877681732178,6,False,3,23
136,1,1,0,0.2528070114016814,0.7054851055145264,3.1045823097229004,8,False,3,24
137,1,0,0,0.24704542584115602,0.6996030807495117,1.7205541133880615,5,False,3,25
138,0,0,0,0.26429662937662446,0.30588221549987793,3.0285980701446533,2,False,3,26
139,0,0,0,0.36072724692776115,1.5970048904418945,1.9939441680908203,9,False,3,27
140,2,1,0,0.10256061975142071,0.6672518253326416,4.221126079559326,7,False,3,28
141,1,1,0,0.10801370830544008,0.5273940563201904,4.457787990570068,1,False,3,29
142,2,1,1,0.39542388446995536,0.47954607009887695,2.9698901176452637,5,False,3,30
143,2,1,0,0.29781971953122344,1.4136011600494385,2.0101218223571777,9,False,3,31
144,0,0,0,0.35544720141123753,0.5364160537719727,1.8541419506072998,4,False,3,32
145,1,1,0,0.1824153946667078,0.6187388896942139,4.197711706161499,6,False,3,33
146,0,1,0,0.3653211506157159,0.4460263252258301,5.932015895843506,7,False,3,34
147,2,1,0,0.16145753665660997,2.6607601642608643,3.701874256134033,3,False,3,35
148,1,0,0,0.14548884259926034,0.5559020042419434,2.8277108669281006,8,False,3,36
149,2,0,0,0.21017197943195373,0.5716359615325928,4.40000319480896,6,False,3,37
150,2,1,0,0.2885588773512469,1.9231517314910889,4.975713014602661,2,False,3,38
151,2,1,3,0,0,10.147158145904541,4,True,3,39
152,0,1,0,0.31729926125601327,0.9494059085845947,4.738160133361816,5,False,3,40
153,0,1,1,0.1037482810835671,0.5667858123779297,2.8476040363311768,3,False,3,41
154,0,0,0,0.23227291124214744,0.725100040435791,1.5532469749450684,8,False,3,42
155,1,0,1,0.21647650781366862,0.504241943359375,9.480457782745361,6,False,3,43
156,2,1,0,0.1677397975496659,1.1038999557495117,5.538090944290161,2,False,3,44
157,0,1,1,0.24754735943637668,1.061410903930664,2.5866479873657227,9,False,3,45
158,1,1,1,0.2702228541044673,0.7663187980651855,7.686231851577759,7,False,3,46
159,2,0,0,0.10924246363507263,1.0371723175048828,4.223074674606323,1,False,3,47
160,2,1,1,0.35332447747330453,1.0750720500946045,3.8350181579589844,8,False,3,48
161,1,0,0,0.3546489420792367,0.6092386245727539,9.749266862869263,5,False,3,49
162,0,1,0,0.12605312969387622,0.7779629230499268,7.809340715408325,7,False,3,50
163,0,1,1,0.36287459912107667,0.3556861877441406,6.269522190093994,6,False,3,51
164,1,0,0,0.2155620843638248,1.2882208824157715,3.022716999053955,2,False,3,52
165,1,0,0,0.3657212862243999,0.5466070175170898,2.288240909576416,9,False,3,53
166,0,1,3,0,0,10.226136207580566,7,True,3,54
167,0,1,0,0.3812262725803379,0.2940561771392822,7.478665828704834,1,False,3,55
