trial,interactor,cooling,response,listened,hypothesis,confidence,time_delay,reaction_time,stimulus_time,position,failed,n_block,within_block_counter
1,1,0,0,no ,no ,0.81,0.17039492448122284,2.732064962387085,2.7135558128356934,9,False,1,1
2,1,1,0,no ,no ,0.5,0.2929804158149863,2.54028582572937,1.1010351181030273,7,False,1,2
3,0,1,3,0,0,0,0,0,1.4742610454559326,3,True,1,3
4,0,0,0,no ,no ,0.33,0.26407081156858364,2.7275450229644775,2.7704668045043945,5,False,1,4
5,0,0,0,no ,no ,0.91,0.27126012769454605,7.208268642425537,1.1312170028686523,9,False,1,5
6,0,1,1,yes ,yes ,0.98,0.3875159301147113,2.8554999828338623,0.9746100902557373,1,False,1,6
7,1,1,3,0,0,0,0,0,1.314640760421753,5,True,1,7
8,0,0,0,no ,no ,0.75,0.17235100982739293,2.9833600521087646,2.9570090770721436,3,False,1,8
9,0,1,3,0,0,0,0,0,1.3068149089813232,9,True,1,9
10,0,1,1,yes ,yes ,0.99,0.13821167094421477,2.8836700916290283,0.9918379783630371,7,False,1,10
11,1,1,3,0,0,0,0,0,1.2775959968566895,3,True,1,11
12,0,0,0,nope ,nope ,0.5,0.33289618010909994,2.8868601322174072,1.1128530502319336,9,False,1,12
13,1,1,3,0,0,0,0,0,1.263089895248413,5,True,1,13
14,0,1,1,yes ,yes ,0.98,0.12363898928433838,2.9775168895721436,1.021021842956543,3,False,1,14
15,1,1,1,yes ,yes ,0.99,0.11082711705119347,2.994270086288452,1.23988676071167,1,False,1,15
16,1,1,1,yes ,yes ,0.98,0.31714437975026477,3.143605947494507,1.231123924255371,7,False,1,16
17,0,0,0,no ,no ,0.69,0.1347704452982404,2.9103288650512695,1.3631298542022705,5,False,1,17
18,0,0,1,yes ,yes ,0.99,0.14579421318421643,2.9861743450164795,2.8742518424987793,9,False,1,18
19,1,1,1,yes ,yes ,0.99,0.23196076614123326,2.9669718742370605,1.1430096626281738,7,False,1,19
20,1,1,1,yes ,yes ,0.99,0.23569198655589238,2.9813077449798584,1.2777059078216553,5,False,1,20
21,1,1,1,yes ,yes ,0.99,0.20862045624719439,3.0216708183288574,1.194823980331421,9,False,1,21
22,0,0,0,no ,no ,0.73,0.12120329736019722,2.743121862411499,0.9966719150543213,1,False,1,22
23,1,0,0,nope ,nope ,0.3,0.3922004968306497,2.950860023498535,0.959061861038208,5,False,1,23
24,0,1,1,yes ,yes ,0.99,0.2574061518571826,2.9934463500976562,1.1069309711456299,9,False,1,24
25,0,1,0,no ,no ,0.64,0.2951141349145719,2.780365228652954,1.3050470352172852,1,False,1,25
26,1,0,0,no ,no ,0.66,0.3946100949550366,2.973688840866089,3.1772608757019043,5,False,1,26
27,1,1,1,yes ,yes ,0.92,0.35157547930844335,3.0255308151245117,1.3538322448730469,7,False,1,27
28,1,1,1,yes ,yes ,0.98,0.26956252937052794,2.9542038440704346,1.1171901226043701,9,False,1,28
29,0,1,1,yes ,yes ,0.61,0.2461632594587815,3.080080032348633,1.2140309810638428,2,False,1,29
30,0,1,1,yes ,yes ,0.99,0.3723699236282726,3.030860662460327,1.4299159049987793,7,False,1,30
31,1,0,0,no ,no ,0.74,0.34262817104614524,2.8732290267944336,2.923762798309326,6,False,1,31
32,1,1,0,no ,no ,0.62,0.23848722810175002,2.6660690307617188,1.2580327987670898,2,False,1,32
33,0,1,0,no ,no ,0.73,0.19550511429360667,2.871589183807373,1.0559511184692383,7,False,1,33
34,1,0,0,no ,no ,0.69,0.3186638417969301,2.8734710216522217,1.3472692966461182,6,False,1,34
35,1,1,1,yes ,yes ,0.88,0.1852666500370544,2.973327159881592,2.088482141494751,1,False,1,35
36,0,0,0,no ,no ,0.48,0.12381065301581337,2.756525993347168,2.35784912109375,8,False,1,36
37,1,1,1,yes ,yes ,0.99,0.29965996103365433,3.0921080112457275,2.458832263946533,3,False,1,37
38,1,1,1,yes ,yes ,0.98,0.26961613838549403,2.8724312782287598,1.322584867477417,4,False,1,38
39,0,1,1,yes ,yes ,0.98,0.2559628749129994,2.874575138092041,0.8313112258911133,9,False,1,39
40,1,0,0,no ,no ,0.62,0.20931974467823744,2.819657802581787,1.7337629795074463,3,False,1,40
41,0,0,0,no ,no ,0.67,0.2542794227539087,2.9883010387420654,1.4903631210327148,5,False,1,41
42,1,0,0,no ,no ,0.69,0.28934402126150616,2.8341739177703857,2.698679208755493,1,False,1,42
43,1,0,0,no ,no ,0.6,0.31484167524531903,2.883336305618286,1.3303141593933105,7,False,1,43
44,0,1,1,yes ,yes ,0.98,0.2650308624958543,2.895597219467163,0.8412380218505859,5,False,1,44
45,1,1,1,yes ,yes ,0.93,0.3118488117958339,2.8316118717193604,1.0467729568481445,3,False,1,45
46,0,1,0,no ,no ,0.38,0.22035678531596214,2.796487808227539,0.9803721904754639,7,False,1,46
47,0,0,0,no ,no ,0.62,0.18466367673855005,2.7313337326049805,2.8018250465393066,1,False,1,47
48,0,1,1,yes ,yes ,0.98,0.3978879725990323,2.828810930252075,1.0001428127288818,6,False,1,48
49,1,0,0,nope ,nope ,0.36,0.10000989606946253,2.9091641902923584,1.4253971576690674,7,False,1,49
50,0,1,1,yes ,yes ,0.99,0.23295116694952514,2.9979772567749023,1.607576847076416,1,False,1,50
51,0,0,0,nope ,nope ,0.16,0.14592086184601924,2.916802167892456,1.2881801128387451,5,False,1,51
52,1,0,0,nope ,nope ,0.23,0.23386064695412315,2.7586610317230225,0.9855148792266846,3,False,1,52
53,0,0,0,no ,no ,0.77,0.12274945446376029,2.838939905166626,2.996060848236084,9,False,1,53
54,0,0,1,yes ,yes ,0.98,0.11560103677328705,2.893829107284546,1.4634602069854736,4,False,1,54
55,1,0,0,no ,no ,0.71,0.36197238495654327,2.7182650566101074,1.2052130699157715,2,False,1,55
56,0,0,0,nope ,nope ,0.12,0.383054790977179,3.0128610134124756,2.4896762371063232,6,False,1,56
57,1,0,0,no ,no ,0.73,0.17154810885002877,2.91176700592041,3.4874160289764404,8,False,1,57
58,0,1,1,yes ,yes ,0.98,0.29073684579298353,3.173095941543579,1.0890629291534424,4,False,1,58
59,1,0,0,no ,no ,0.58,0.3482485344887616,2.8046257495880127,1.1090309619903564,6,False,1,59
60,1,1,0,no ,no ,0.7,0.3238222952499855,2.887485980987549,1.9992671012878418,2,False,1,60
61,1,0,0,no ,no ,0.67,0.15964363980164847,2.967639207839966,1.7545788288116455,4,False,1,61
62,0,1,1,yes ,yes ,0.99,0.2773508456364083,2.9891748428344727,1.465959072113037,8,False,1,62
63,0,0,1,yes ,yes ,0.98,0.29698026414103124,2.7949700355529785,1.880586862564087,6,False,2,0
64,1,1,1,yes ,yes ,0.99,0.17343476550176345,2.828535795211792,1.727874994277954,1,False,2,1
65,1,1,3,0,0,0,0,0,1.2230827808380127,8,True,2,2
66,0,1,1,yes ,yes ,0.87,0.2866254096297456,2.764174222946167,0.6166567802429199,3,False,2,3
67,1,1,3,0,0,0,0,0,1.2499089241027832,4,True,2,4
68,1,1,1,yes ,yes ,0.99,0.25724182125859524,2.8755199909210205,1.1084239482879639,8,False,2,5
69,1,0,0,no ,no ,0.56,0.11028248702640732,2.6497647762298584,1.811434030532837,6,False,2,6
70,0,1,1,yes ,yes ,0.99,0.21643080536986692,2.723860025405884,1.193312644958496,2,False,2,7
71,0,1,1,yes ,yes ,0.99,0.3372633722799955,2.6963489055633545,0.9271988868713379,8,False,2,8
72,0,1,1,yes ,yes ,0.98,0.266274140066715,2.6866812705993652,1.05702805519104,6,False,2,9
73,0,1,1,yes ,yes ,0.99,0.34316779141184317,2.7669472694396973,1.1298630237579346,2,False,2,10
74,1,1,1,yes ,yes ,0.99,0.29408600161520493,2.8093760013580322,0.9893226623535156,8,False,2,11
75,1,0,0,no ,no ,0.63,0.3191904140768173,2.604227066040039,1.7791979312896729,4,False,2,12
76,0,1,1,yes ,yes ,0.99,0.32289756262339053,2.8300349712371826,1.0378680229187012,3,False,2,13
77,1,0,0,nope ,nope ,0.23,0.3164518821914283,2.6672801971435547,1.1455669403076172,8,False,2,14
78,0,0,0,no ,no ,0.66,0.23313754809021398,2.787307024002075,1.3398346900939941,4,False,2,15
79,0,0,0,no ,no ,0.68,0.34532494623188603,2.7456750869750977,1.1249330043792725,6,False,2,16
80,1,0,0,no ,no ,0.21,0.35536772766572033,2.8683831691741943,3.1158177852630615,2,False,2,17
81,1,1,1,yes ,yes ,0.99,0.21718028876622034,2.7473626136779785,1.0496790409088135,4,False,2,18
82,0,0,1,yes ,yes ,0.9,0.1478388975204587,2.8117852210998535,1.3455641269683838,8,False,2,19
83,1,1,0,no ,no ,0.76,0.19297841754576026,2.758985996246338,1.088592767715454,2,False,2,20
84,0,0,0,no ,no ,0.67,0.1279804017486746,2.639477014541626,3.5158400535583496,6,False,2,21
85,0,1,1,yes ,yes ,0.91,0.12231754857561707,2.712831974029541,1.3060030937194824,4,False,2,22
86,0,1,1,yes ,yes ,0.98,0.25629539971565163,2.826606273651123,1.0354132652282715,2,False,2,23
87,1,0,0,nope ,nope ,0.24,0.299209767580824,2.721768856048584,1.0641531944274902,6,False,2,24
88,0,0,0,no ,no ,0.67,0.38520613260439607,2.733431100845337,2.8379549980163574,8,False,2,25
89,0,1,1,yes ,yes ,0.9,0.12476583335795116,2.711488962173462,0.923090934753418,2,False,2,26
90,1,0,1,yes ,yes ,0.98,0.15501615893714363,2.7774999141693115,1.2620069980621338,4,False,2,27
91,1,1,1,yes ,yes ,0.99,0.24122569059174517,2.755176305770874,1.0984318256378174,8,False,2,28
92,0,0,0,no ,no ,0.63,0.3925768426167846,2.6625258922576904,1.6593139171600342,2,False,2,29
93,1,1,1,yes ,yes ,0.99,0.29304577082856587,2.8307600021362305,1.183070182800293,4,False,2,30
94,1,0,0,no ,no ,0.56,0.26412037318279513,2.5508580207824707,1.6120529174804688,6,False,2,31
95,1,0,0,nope ,nope ,0.19,0.2631443923209378,2.804084062576294,1.5660669803619385,8,False,2,32
96,1,1,1,yes ,yes ,0.98,0.19521712177638598,3.113367795944214,0.88118577003479,1,False,2,33
97,0,1,1,yes ,yes ,0.98,0.15008262684579785,3.0068278312683105,0.8378980159759521,3,False,2,34
98,0,1,1,yes ,yes ,0.99,0.1874341359962568,2.960775852203369,0.7929153442382812,5,False,2,35
99,1,0,0,no ,no ,0.64,0.39776267547883803,2.873932123184204,1.1429829597473145,1,False,2,36
100,1,1,1,yes ,yes ,0.76,0.34060905483452447,2.8715810775756836,1.248047113418579,3,False,2,37
101,0,1,1,yes ,yes ,0.99,0.34520977602112574,2.9581968784332275,1.1432712078094482,5,False,2,38
102,0,0,0,no ,no ,0.57,0.2797923395774553,2.749753952026367,2.3816230297088623,7,False,2,39
103,1,0,0,no ,no ,0.34,0.2051717588974949,2.741580009460449,3.500030994415283,1,False,2,40
104,1,0,0,no ,no ,0.73,0.345372398159402,2.710259199142456,1.419600248336792,9,False,2,41
105,0,0,0,no ,no ,0.53,0.3709371140550677,2.765995979309082,1.5877323150634766,7,False,2,42
106,0,0,0,no ,no ,0.52,0.13080495307734316,3.118901014328003,1.6111259460449219,2,False,2,43
107,1,1,0,no ,no ,0.58,0.195997488636602,7.568182945251465,1.1479978561401367,9,False,2,44
108,0,0,0,no ,no ,0.66,0.3962142390019826,3.041858673095703,1.0510759353637695,4,False,2,45
109,0,0,0,no ,no ,0.6,0.2316146845195516,2.8119399547576904,3.250458002090454,1,False,2,46
110,1,0,0,no ,no ,0.84,0.3119248064468363,2.765072822570801,1.3690292835235596,4,False,2,47
111,0,0,0,no ,no ,0.84,0.2594757509838531,6.69995903968811,1.9308290481567383,7,False,2,48
112,1,1,1,yes ,yes ,0.94,0.15804483243017822,2.862022876739502,1.2098979949951172,9,False,2,49
113,1,0,0,no ,no ,0.72,0.17251609315053407,2.630312919616699,1.5860140323638916,8,False,2,50
114,1,1,1,yes ,yes ,0.83,0.3982447313735349,2.9503297805786133,1.838305950164795,2,False,2,51
115,1,1,0,no ,no ,0.72,0.2571027285631754,2.810199022293091,0.7742311954498291,4,False,2,52
