trial,delta_stimulation,delta_target,reversed,response,reaction_time,time_delay,stimulus_time,position,failed,n_block,within_block_counter
0,0.2,0.1,False,1,0.8954448699951172,0.28310285554752324,0.6858847141265869,3,False,1,0
1,0.2,0.0,False,1,0.6895489692687988,0.23404495105612083,0.7286689281463623,6,False,1,1
2,0.2,-0.1,False,1,0.5129740238189697,0.22890010855189655,0.7536907196044922,1,False,1,2
0,1.4,1.2,False,1,0.5090310573577881,0.36106022082436273,1.1761040687561035,2,False,1,0
1,1.2,1.0,False,1,0.507371187210083,0.28740151943941206,1.5828890800476074,5,False,1,1
3,0.2,-0.2,False,1,0.3912639617919922,0.1726479723566414,0.6540088653564453,8,False,1,3
4,0.2,-0.30000000000000004,False,1,0.6906421184539795,0.15910981069023894,0.7586438655853271,1,False,1,4
0,1.0,1.0,False,3,0,0,0.5990898609161377,4,True,1,2,0,0,0
0,1.0,1.0,False,3,0,0,0.9853198528289795,6,True,1,3,0,0,0
5,0.2,-0.4,False,1,0.5741817951202393,0.25291651274261684,0.6697618961334229,8,False,1,5,0,0,0
0,0.2,-0.4,False,3,0,0,0.3939790725708008,9,True,1,6,0,0,0
6,0.2,-0.5,False,1,0.7364180088043213,0.1672952524690763,1.0013928413391113,1,False,1,7,0,0,0
0,1.0,1.0,False,3,0,0,0.6264822483062744,4,True,1,4,0,0,0
2,1.0,0.8,False,1,0.5492746829986572,0.15595705318806918,0.9981682300567627,3,False,1,5,0,0,0
7,0.2,-0.6,False,1,0.8592851161956787,0.26413042914093426,0.6639468669891357,7,False,1,8,0,0,0
3,0.8,0.9400000000000001,True,0,0.6507041454315186,0.1066283376202287,0.7262709140777588,6,False,1,6,0,0,0
4,0.9400000000000001,0.9400000000000001,True,1,0.8482527732849121,0.3059363195677514,1.6144969463348389,5,False,1,7,0,0,0
8,0.2,-0.45999999999999996,True,0,0.7422840595245361,0.17838354889056807,0.9583001136779785,8,False,1,9,0,0,0
9,0.2,-0.45999999999999996,True,1,0.5056641101837158,0.36177864801369153,1.151305913925171,1,False,1,10,0,0,0
0,0.2,-0.45999999999999996,True,3,0,0,1.1051008701324463,6,True,1,11,0,0,0
10,0.2,-0.45999999999999996,False,1,0.5429461002349854,0.2609318481204064,1.1156573295593262,2,False,1,12,0,0,0
11,0.2,-0.31999999999999995,True,0,1.0712177753448486,0.21858397180493622,1.2930028438568115,8,False,1,13,0,0,0
0,0.2,-0.31999999999999995,True,3,0,0,0.3937108516693115,1,True,1,14,0,0,0
0,0.9400000000000001,0.9400000000000001,True,3,0,0,0.4307131767272949,4,True,1,8,0,0,0
12,0.2,-0.31999999999999995,True,1,0.5759060382843018,0.27586119170806295,1.010885238647461,3,False,1,15,0,0,0
5,0.9400000000000001,1.08,True,0,0.6340627670288086,0.3773461212682112,1.112865924835205,6,False,1,9,0,0,0
13,0.2,-0.31999999999999995,False,1,0.9701259136199951,0.21853087267170662,0.7018649578094482,9,False,1,16,0,0,0
14,0.2,-0.17999999999999994,True,0,1.015580177307129,0.3926639739980694,0.7278957366943359,8,False,1,17,0,0,0
6,1.08,1.08,True,1,0.5060839653015137,0.33296093775198143,3.712325096130371,2,False,1,10,0,0,0
7,1.08,1.2200000000000002,True,0,0.6151087284088135,0.3125967883065214,1.0250179767608643,6,False,1,11,0,0,0
8,1.2200000000000002,1.2200000000000002,True,1,0.6502149105072021,0.393109827990477,2.2378368377685547,7,False,1,12,0,0,0
9,1.2200000000000002,1.3600000000000003,True,0,0.7605648040771484,0.2809145651813665,0.4006519317626953,4,False,1,13,0,0,0
15,0.2,-0.039999999999999925,False,0,0.6424229145050049,0.26858747679281203,1.195986270904541,2,False,1,18,0,0,0
10,1.3600000000000003,1.5000000000000004,False,0,0.5719609260559082,0.1309695338140428,1.658456802368164,6,False,1,14,0,0,0
16,0.2,0.10000000000000009,False,0,0.6245160102844238,0.1789800973584619,0.968177080154419,1,False,1,19,0,0,0
11,1.5000000000000004,1.5000000000000004,True,1,0.4770209789276123,0.18967382865987586,2.336669921875,9,False,1,15,0,0,0
12,1.5000000000000004,1.5000000000000004,False,1,0.5076119899749756,0.17846942354132977,2.631895065307617,3,False,1,16,0,0,0
13,1.5000000000000004,1.4000000000000004,False,1,0.7503962516784668,0.19492174308410004,7.228076696395874,2,False,1,17,0,0,0
14,1.4000000000000004,1.5400000000000005,True,0,0.6652309894561768,0.1951985531459925,1.9982829093933105,6,False,1,18,0,0,0
15,1.5400000000000005,1.5400000000000005,True,1,0.5542182922363281,0.3960177970684482,5.795115947723389,4,False,1,19,0,0,0
16,1.5400000000000005,1.5400000000000005,False,1,0.6431319713592529,0.2564534660564898,3.710779905319214,9,False,1,20,0,0,0
17,0.2,0.2400000000000001,False,0,0.8885111808776855,0.21963339019311406,0.9249110221862793,3,False,1,20,0,0,0
17,1.5400000000000005,1.6800000000000006,True,0,0.5957040786743164,0.13406131553969047,7.309679269790649,1,False,1,21,0,0,0
18,1.6800000000000006,1.6800000000000006,True,1,0.5293679237365723,0.33339527348714826,6.994383096694946,2,False,1,22,0,0,0
18,0.2400000000000001,0.3800000000000001,False,0,0.9461612701416016,0.3656750034592815,0.7131180763244629,5,False,1,21,0,0,0
19,0.3800000000000001,0.5200000000000001,False,0,0.7078220844268799,0.39119575187125843,0.42822909355163574,7,False,1,22,0,0,0
19,1.6800000000000006,1.6800000000000006,False,1,0.5536589622497559,0.22490771737704496,6.4672229290008545,8,False,1,23,0,0,0
20,0.5200000000000001,0.5200000000000001,True,1,0.6756958961486816,0.25540919933490025,1.1016650199890137,2,False,1,23,0,0,0
20,1.6800000000000006,1.5800000000000005,False,1,0.6003131866455078,0.19229698548518684,3.5846810340881348,3,False,1,24,0,0,0
0,1.5800000000000005,1.5800000000000005,False,3,0,0,10.18199610710144,1,True,1,25,0,0,0
21,0.5200000000000001,0.6600000000000001,True,0,0.6573960781097412,0.3659890226576459,1.1414320468902588,8,False,1,24,0,0,0
22,0.6600000000000001,0.6600000000000001,True,1,0.7293651103973389,0.3235379895550634,0.6914780139923096,4,False,1,25,0,0,0
23,0.6600000000000001,0.8000000000000002,True,0,0.7815208435058594,0.35663197409849634,1.3502919673919678,3,False,1,26,0,0,0
0,1.5800000000000005,1.5800000000000005,False,3,0,0,10.44104790687561,1,True,1,26,0,0,0
21,1.5800000000000005,1.7200000000000006,True,0,0.7027847766876221,0.13947634735661146,4.91533088684082,8,False,1,27,0,0,0
24,0.8000000000000002,0.9400000000000002,False,0,0.6107678413391113,0.3540698368987293,1.9416239261627197,5,False,1,27,0,0,0
25,0.9400000000000002,0.9400000000000002,True,1,0.8172879219055176,0.21223268841269372,2.6719799041748047,2,False,1,28,0,0,0
26,0.9400000000000002,1.08,True,0,0.5448060035705566,0.16735178133073209,2.931978940963745,9,False,1,29,0,0,0
27,1.08,1.08,True,1,0.6023180484771729,0.22421350031256665,2.4999048709869385,3,False,1,30,0,0,0
28,1.08,1.2200000000000002,True,0,0.7416501045227051,0.13555750931366226,3.041718006134033,8,False,1,31,0,0,0
