trial,interactor,cooling,response,listened,hypothesis,confidence,time_delay,reaction_time,stimulus_time,position,failed,n_block,within_block_counter
1,0,1,1,yes ,yes ,0.71,0.2805998611163041,3.091296672821045,2.553528070449829,6,False,1,1
2,0,1,1,yes ,yes ,0.99,0.345287055258373,3.094175100326538,4.100369930267334,2,False,1,2
3,1,1,0,no ,no ,0.62,0.220763993374845,2.9619157314300537,6.232739210128784,4,False,1,3
4,0,1,0,no ,no ,0.39,0.2591731521697276,3.077363967895508,1.7806148529052734,9,False,1,4
5,0,1,1,yes ,yes ,0.99,0.11636964533371086,3.0335869789123535,5.328674077987671,3,False,1,5
6,0,0,1,yes ,yes ,0.99,0.17490505470427742,3.0772719383239746,1.8432209491729736,7,False,1,6
7,1,1,1,yes ,yes ,0.99,0.30201433478325557,3.2263381481170654,3.4038541316986084,5,False,1,7
8,1,1,0,no ,no ,0.41,0.23436686195958176,3.017163038253784,7.394114017486572,1,False,1,8
9,0,1,0,no ,no ,0.61,0.3716870706265235,2.9172449111938477,2.7909889221191406,7,False,1,9
10,0,0,1,yes ,yes ,0.99,0.1299907968648614,3.249260902404785,6.29149317741394,5,False,1,10
11,0,0,1,yes ,yes ,0.99,0.24295962877550228,3.1476352214813232,7.555900812149048,9,False,1,11
12,1,1,3,0,0,0,0,0,10.203893184661865,3,True,1,12
13,0,0,0,no ,no ,0.52,0.3028620350324437,3.0748343467712402,2.588738203048706,7,False,2,0
14,1,0,1,yes ,yes ,0.99,0.2334006676736288,3.2286317348480225,7.6363770961761475,9,False,2,1
15,1,1,1,yes ,yes ,0.99,0.13452926630832435,2.9639408588409424,2.073823928833008,1,False,2,2
16,0,1,0,no ,no ,0.4,0.200443988447705,2.9915480613708496,1.319957971572876,5,False,2,3
17,0,0,1,yes ,yes ,0.99,0.18450173128776728,3.080471992492676,7.851083040237427,7,False,2,4
18,0,0,1,yes ,yes ,0.99,0.1525729008560538,3.1457738876342773,1.9391510486602783,3,False,2,5
19,1,0,1,yes ,yes ,0.99,0.115743875307625,2.8887932300567627,7.586379766464233,1,False,2,6
20,1,0,0,no ,no ,0.71,0.3335983293783269,2.919404983520508,7.931992053985596,7,False,2,7
21,1,1,1,yes ,yes ,0.99,0.28568687134267945,3.2488858699798584,2.1313819885253906,5,False,2,8
22,1,0,1,yes ,yes ,0.99,0.3903524224652689,2.9316439628601074,1.9296221733093262,9,False,2,9
23,1,1,1,yes ,yes ,0.99,0.2883552721946847,3.0428028106689453,2.392580270767212,3,False,2,10
24,0,0,1,yes ,yes ,0.99,0.28573285961741324,2.9630510807037354,7.707488059997559,4,False,2,11
25,1,1,1,yes ,yes ,0.99,0.21573265508716813,2.956489086151123,2.086566925048828,8,False,2,12
26,0,1,1,yes ,yes ,0.99,0.15313169482403366,2.8936269283294678,2.5313570499420166,2,False,2,13
27,0,1,1,yes ,yes ,0.99,0.12474636892241574,2.8455686569213867,3.3709182739257812,4,False,2,14
28,1,0,1,yes ,yes ,0.99,0.3242839668586942,3.1950159072875977,2.694125175476074,8,False,2,15
29,1,0,1,yes ,yes ,0.99,0.39291027846084803,3.065869092941284,7.820394039154053,3,False,2,16
30,0,1,1,yes ,yes ,0.99,0.328898029254189,2.996630907058716,3.409834146499634,1,False,2,17
31,1,0,1,yes ,yes ,0.99,0.24791490459839047,3.246940851211548,3.499263048171997,5,False,2,18
32,1,0,0,no ,no ,0.51,0.20859466587731312,3.4145970344543457,1.9310548305511475,9,False,2,19
33,1,1,1,yes ,yes ,0.99,0.24866797861604836,3.040738105773926,3.558940887451172,7,False,2,20
34,0,0,1,yes ,yes ,0.99,0.33830940844950225,3.1127259731292725,3.5894551277160645,5,False,2,21
35,1,0,1,yes ,yes ,0.99,0.27497005551456305,3.3139750957489014,7.6741859912872314,1,False,2,22
36,0,0,1,yes ,yes ,0.99,0.2487249611880415,3.193964958190918,2.559135913848877,7,False,2,23
37,0,1,1,yes ,yes ,0.99,0.16995816859682372,3.207775115966797,2.4495158195495605,5,False,2,24
38,0,1,1,yes ,yes ,0.99,0.23104247425911595,3.363861083984375,1.703145980834961,9,False,2,25
39,0,0,1,yes ,yes ,0.99,0.15141330484817164,3.0589559078216553,7.8982322216033936,3,False,2,26
40,1,0,1,yes ,yes ,0.99,0.2721000476080514,3.3022210597991943,2.2485110759735107,1,False,2,27
41,1,0,1,yes ,yes ,0.99,0.23679605634680145,3.445000171661377,2.0624589920043945,9,False,2,28
42,0,1,1,yes ,yes ,0.99,0.21552307175439983,2.9211618900299072,3.7971272468566895,5,False,2,29
43,1,1,0,no ,no ,0.75,0.3424568083830581,6.346068859100342,6.209284782409668,7,False,2,30
44,0,1,1,yes ,yes ,0.99,0.36831307376230804,3.0315210819244385,3.7100870609283447,1,False,2,31
45,1,0,0,no ,no ,0.88,0.1420526633626781,7.048238039016724,1.8818891048431396,3,False,2,32
46,1,1,1,yes ,yes ,0.99,0.2878610793050346,2.9159390926361084,2.595521926879883,9,False,2,33
47,0,0,1,yes ,yes ,0.99,0.16730613532496502,3.052219867706299,7.9734251499176025,1,False,2,34
48,0,0,1,yes ,yes ,0.99,0.22993223375947314,3.481340169906616,2.5565643310546875,3,False,2,35
49,1,0,1,yes ,yes ,0.99,0.22449092770547951,3.2164740562438965,3.7749249935150146,5,False,2,36
50,1,1,1,yes ,yes ,0.99,0.1297292869350643,2.957012891769409,4.7751710414886475,7,False,2,37
51,0,1,1,yes ,yes ,0.99,0.18552259042943947,3.0968220233917236,5.587573051452637,9,False,2,38
52,0,0,1,yes ,yes ,0.99,0.29550341955775966,2.9611079692840576,7.681389093399048,5,False,2,39
53,1,1,1,yes ,yes ,0.96,0.20325525905033798,3.1713709831237793,6.898269891738892,3,False,2,40
54,0,0,0,no ,no ,0.46,0.3880410609594277,3.31070613861084,1.769604206085205,1,False,2,41
55,1,1,1,yes ,yes ,0.99,0.17679848645463847,3.110625743865967,3.021211862564087,5,False,2,42
56,0,0,0,no ,no ,0.56,0.16130155456781187,3.3632349967956543,2.13055682182312,9,False,2,43
57,1,0,1,yes ,yes ,0.99,0.26528971100657706,3.199242115020752,2.5323851108551025,7,False,2,44
58,0,1,1,yes ,yes ,0.99,0.17092004881316314,3.0464179515838623,5.443089962005615,2,False,2,45
59,1,1,1,yes ,yes ,0.99,0.1963539138584132,3.5871407985687256,3.94963002204895,9,False,2,46
60,0,0,0,no ,no ,0.48,0.2897417734428693,6.3654680252075195,3.737722158432007,4,False,2,47
61,1,0,1,yes ,yes ,0.99,0.16251157955999207,3.089217185974121,3.8521311283111572,2,False,2,48
62,1,1,1,yes ,yes ,0.99,0.3756132796448355,3.101590156555176,5.729434013366699,6,False,2,49
63,0,1,1,yes ,yes ,0.99,0.3563850643347318,3.0441019535064697,1.2808427810668945,4,False,3,0
64,1,0,1,yes ,yes ,0.99,0.23848499118546337,3.073190927505493,5.799252986907959,2,False,3,1
65,0,1,1,yes ,yes ,0.99,0.15784739224430672,3.0098910331726074,1.187924861907959,8,False,3,2
66,1,0,0,no ,no ,0.43,0.13921733843537332,2.928081750869751,4.989572763442993,6,False,3,3
67,0,1,1,yes ,yes ,0.99,0.37237609874430555,3.204357862472534,1.626981258392334,4,False,3,4
68,0,0,1,yes ,yes ,0.99,0.21627894105084716,3.15922474861145,2.1892271041870117,8,False,3,5
69,0,1,1,yes ,yes ,0.99,0.36672967311515214,3.1063790321350098,2.516904354095459,3,False,3,6
70,0,0,0,no ,no ,0.76,0.3848269327095195,6.186617136001587,7.0238049030303955,1,False,3,7
71,1,1,1,yes ,yes ,0.99,0.36796335579211525,3.258211851119995,2.059217929840088,9,False,3,8
72,1,1,1,yes ,yes ,0.99,0.33069219454098764,2.918884038925171,1.610403060913086,5,False,3,9
73,1,0,0,no ,no ,0.66,0.1880854134452724,3.1165030002593994,2.581162929534912,3,False,3,10
74,1,0,1,yes ,yes ,0.99,0.1803412267394392,3.1532528400421143,1.789942979812622,7,False,3,11
75,1,0,1,yes ,yes ,0.99,0.20940003127933232,3.2506039142608643,4.05109977722168,1,False,3,12
76,1,0,1,yes ,yes ,0.99,0.19257996812444717,3.0666098594665527,6.2807958126068115,6,False,3,13
77,1,1,1,yes ,yes ,0.99,0.3830743111518592,3.041633129119873,2.044059991836548,8,False,3,14
78,1,1,1,yes ,yes ,0.99,0.20031652024761687,3.17138409614563,6.327173948287964,2,False,3,15
79,1,0,1,yes ,yes ,0.99,0.23354185064502772,3.133484125137329,3.5268359184265137,6,False,3,16
80,1,1,1,yes ,yes ,0.99,0.25235635922930155,3.048635959625244,3.450716972351074,8,False,3,17
81,1,1,1,yes ,yes ,0.99,0.2988433131677266,3.035977840423584,7.040394306182861,2,False,3,18
82,1,0,1,yes ,yes ,0.99,0.35328062650390357,3.252694845199585,4.104063987731934,4,False,3,19
83,0,0,0,no ,no ,0.44,0.17774672589568338,3.1496498584747314,6.303362131118774,6,False,3,20
84,0,0,1,yes ,yes ,0.99,0.3987338137417662,3.1645729541778564,2.6162519454956055,8,False,3,21
85,1,1,1,yes ,yes ,0.99,0.12906231240396648,3.100924253463745,2.9322919845581055,2,False,3,22
86,0,1,1,yes ,yes ,0.99,0.36250561275071347,2.860260009765625,2.4906108379364014,6,False,3,23
87,0,1,1,yes ,yes ,0.99,0.3234268543961427,2.897274971008301,3.6223490238189697,4,False,3,24
88,0,0,1,yes ,yes ,0.99,0.33841901416572384,3.0500080585479736,5.436068296432495,8,False,3,25
89,0,1,1,yes ,yes ,0.99,0.10761578314609697,3.0770440101623535,3.674262046813965,3,False,3,26
90,0,1,1,yes ,yes ,0.99,0.39439903726007663,3.251842975616455,3.29315185546875,1,False,3,27
91,1,0,1,yes ,yes ,0.27,0.13852470325601732,2.9729809761047363,6.6576080322265625,7,False,3,28
92,1,0,1,yes ,yes ,0.99,0.23533361152835985,3.3027749061584473,8.13606309890747,6,False,3,29
93,0,1,1,yes ,yes ,0.99,0.3172613157920108,3.11059832572937,4.5653533935546875,2,False,3,30
94,0,1,1,yes ,yes ,0.99,0.3645385737187611,3.1414382457733154,3.5487847328186035,8,False,3,31
95,0,1,1,yes ,yes ,0.99,0.1755701025005359,3.0081958770751953,9.219125032424927,4,False,3,32
96,1,1,1,yes ,yes ,0.99,0.161971067151645,3.215162754058838,6.45868706703186,6,False,3,33
97,0,0,0,no ,no ,0.74,0.2518071660539878,3.3007380962371826,4.174818992614746,2,False,3,34
98,1,0,1,yes ,yes ,0.99,0.391430015590707,3.0531458854675293,2.63265323638916,4,False,3,35
99,1,1,1,yes ,yes ,0.99,0.14658916087994173,3.3214480876922607,2.7950778007507324,8,False,3,36
100,1,1,1,yes ,yes ,0.99,0.2558096686674831,3.041390895843506,6.577368974685669,6,False,3,37
101,1,1,3,0,0,0,0,0,10.546461820602417,2,True,3,38
102,0,0,1,yes ,yes ,0.99,0.17754240122353399,3.0550999641418457,4.04574728012085,4,False,3,39
103,1,1,1,yes ,yes ,0.99,0.1900054983083136,3.0881540775299072,5.04123592376709,6,False,3,40
104,0,0,0,no ,no ,0.36,0.18301375987700635,3.123504161834717,3.721418857574463,2,False,3,41
105,0,0,0,no ,no ,0.5,0.21218640822292872,3.206608772277832,2.5572190284729004,8,False,3,42
106,0,1,3,0,0,0,0,0,10.21786379814148,6,True,3,43
107,1,0,1,yes ,yes ,0.99,0.2785152851167665,2.9743380546569824,3.8886470794677734,4,False,4,0
108,0,0,1,yes ,yes ,0.99,0.25307516677761727,3.0111751556396484,3.9023890495300293,8,False,4,1
109,0,0,0,no ,no ,0.4,0.3293199569020281,3.2287328243255615,4.186152935028076,2,False,4,2
110,0,1,1,yes ,yes ,0.99,0.2968254113247008,3.0823187828063965,1.6862142086029053,9,False,4,3
111,1,1,1,yes ,yes ,0.99,0.38254805364450273,3.1199100017547607,2.5699470043182373,1,False,4,4
