trial,interactor,cooling,response,time_delay,reaction_time,stimulus_time,position,failed,n_block,within_block_counter
1,0,0,0,0.23057375183241305,0.7857139110565186,3.887101888656616,4,False,1,1
2,0,1,1,0.30846650713366247,0.6065859794616699,2.154717206954956,9,False,1,2
3,2,0,0,0.27809833374633947,1.1935639381408691,2.40280818939209,2,False,1,3
4,0,1,1,0.1492940864370436,1.1459460258483887,2.489231824874878,7,False,1,4
5,2,0,0,0.3856179847823542,0.9659950733184814,2.9333677291870117,6,False,1,5
6,0,0,0,0.20104683533447937,0.9965639114379883,3.8386170864105225,2,False,1,6
7,2,1,1,0.2736911869579769,0.8381538391113281,2.5016229152679443,8,False,1,7
8,1,1,0,0.29396296441191805,0.8058691024780273,3.4784841537475586,4,False,1,8
9,1,0,0,0.22543237544815317,1.1719400882720947,2.3134610652923584,6,False,1,9
10,2,0,1,0.26672337235284127,0.7227251529693604,3.173063039779663,2,False,1,10
11,1,0,0,0.1964728122551997,0.6165261268615723,2.6992199420928955,8,False,1,11
12,2,0,0,0.1008426412876725,0.9192662239074707,3.4703609943389893,4,False,1,12
13,0,0,0,0.10422385080678959,0.8960781097412109,3.4031622409820557,6,False,1,13
14,2,1,1,0.34655035488879155,0.949228048324585,2.656338930130005,2,False,1,14
15,0,0,0,0.3769993590279467,0.5127270221710205,3.1952579021453857,4,False,1,15
16,0,0,0,0.3719555761139476,0.8316888809204102,2.6327428817749023,8,False,1,16
17,1,1,1,0.17518651766613486,0.7371621131896973,2.4659759998321533,6,False,1,17
18,1,0,0,0.3001144316026694,1.126344919204712,3.2102129459381104,1,False,1,18
19,0,0,0,0.36277656936973623,1.046886920928955,2.523798704147339,8,False,1,19
20,2,1,0,0.3560988672328953,2.521925926208496,2.9051389694213867,3,False,1,20
21,0,1,1,0.34644446142950713,0.7477531433105469,5.488221883773804,1,False,1,21
22,1,1,0,0.23133311999514802,1.697585105895996,2.7140119075775146,5,False,1,22
23,2,0,0,0.20494802532351125,1.4142870903015137,2.573080062866211,7,False,1,23
24,0,0,0,0.2137168684520856,0.8150680065155029,2.7710580825805664,9,False,1,24
25,0,1,3,0,0,10.148773908615112,1,True,1,25
26,0,1,0,0.138636083016369,1.2806532382965088,5.784293174743652,7,False,1,26
27,1,1,1,0.22543565611711153,1.0443577766418457,1.085407018661499,5,False,2,0
28,2,0,0,0.1846635134316185,0.9204308986663818,2.8401379585266113,9,False,2,1
29,0,0,0,0.21552687031583728,1.0152907371520996,3.4169938564300537,1,False,2,2
30,1,0,0,0.37997557866113474,1.0498440265655518,3.8938937187194824,7,False,2,3
31,1,0,0,0.3109015856512727,0.9743747711181641,2.889187812805176,5,False,2,4
32,0,0,0,0.32142290316525796,1.222870111465454,3.3746962547302246,9,False,2,5
33,0,1,1,0.26128373629205703,0.9543747901916504,1.4478859901428223,1,False,2,6
34,2,1,1,0.167139102286106,1.1469318866729736,1.5701618194580078,3,False,2,7
35,0,1,0,0.23371347784579596,1.1802589893341064,1.0672869682312012,9,False,2,8
36,0,1,1,0.2607920787002301,0.9286289215087891,1.9989359378814697,1,False,2,9
37,1,1,0,0.13701669180461942,1.1869230270385742,1.5847322940826416,5,False,2,10
38,1,1,1,0.28839920812361236,1.2637078762054443,1.376526117324829,7,False,2,11
39,2,1,1,0.37206907898676844,1.127319097518921,1.4605340957641602,3,False,2,12
40,1,1,0,0.38299809249442285,0.9129617214202881,1.553786277770996,9,False,2,13
41,2,1,1,0.24462991361964445,1.1229748725891113,1.8365423679351807,5,False,2,14
42,1,1,1,0.23312879846878118,1.0245938301086426,1.9450790882110596,1,False,2,15
43,2,1,1,0.268923155955611,0.9703712463378906,0.9748780727386475,3,False,2,16
44,2,0,0,0.12714075992431592,0.933563232421875,2.9876790046691895,9,False,2,17
45,2,0,0,0.24228269683104645,1.6127080917358398,2.195573091506958,5,False,2,18
46,1,0,0,0.2841629172412201,0.6591918468475342,3.847661018371582,7,False,2,19
47,1,1,0,0.2296637601597594,0.7915446758270264,1.3383851051330566,9,False,2,20
48,2,0,0,0.20478341236580128,0.9782390594482422,3.131978988647461,1,False,2,21
49,2,0,0,0.25264789666401066,1.9789409637451172,1.8616039752960205,3,False,2,22
50,0,1,0,0.2738229691576307,1.782243251800537,2.706552028656006,5,False,2,23
51,0,1,0,0.3883150297195088,0.9814422130584717,1.2221629619598389,9,False,2,24
52,2,0,1,0.16236557254439,0.7639608383178711,3.4786460399627686,3,False,2,25
53,1,1,1,0.21942070887420834,0.892021894454956,2.8111472129821777,4,False,2,26
54,1,1,1,0.19417775107595464,1.262834072113037,2.527587652206421,8,False,2,27
55,1,0,0,0.2667156701952901,0.6757040023803711,2.594895839691162,2,False,2,28
56,1,1,1,0.3271692414561258,1.2819530963897705,1.465601921081543,6,False,2,29
57,2,0,0,0.22709761608780793,1.150439739227295,2.0072531700134277,8,False,2,30
58,2,0,0,0.391189155670448,1.5001559257507324,6.056174993515015,4,False,2,31
59,2,1,0,0.14469530519249335,1.4314122200012207,1.5363399982452393,6,False,2,32
60,0,0,0,0.2738934831019756,1.1227612495422363,2.9184820652008057,2,False,2,33
61,2,0,0,0.10016363924223032,1.276249885559082,2.5566678047180176,7,False,2,34
62,1,1,0,0.2587926653884034,2.9463088512420654,1.7159888744354248,6,False,2,35
63,0,1,1,0.27469605629598115,0.6431808471679688,2.5150439739227295,2,False,2,36
64,0,0,0,0.19262042567625726,1.3360528945922852,5.481689929962158,4,False,2,37
65,0,1,0,0.17533926729335364,1.5609591007232666,2.4927492141723633,8,False,2,38
66,0,0,0,0.3149038854188805,1.1238889694213867,3.0968308448791504,6,False,2,39
67,0,1,0,0.22543185122660464,1.5381102561950684,2.213690996170044,4,False,2,40
68,1,0,0,0.38223184194147164,1.6647889614105225,3.7457427978515625,2,False,2,41
69,0,0,0,0.14442276868903964,1.083698034286499,1.6387929916381836,6,False,2,42
70,1,1,1,0.36534373792749775,1.075782060623169,2.603039026260376,4,False,2,43
71,2,0,1,0.11248492619639457,1.2073569297790527,2.721835136413574,2,False,2,44
72,1,0,0,0.37550148135212247,2.199949264526367,5.932369709014893,6,False,2,45
73,1,1,0,0.30548336695455985,1.5881028175354004,3.858217239379883,4,False,2,46
74,0,0,0,0.1049572438979704,0.6657261848449707,3.925481081008911,8,False,2,47
75,1,0,0,0.21095257666794726,1.4761781692504883,2.4950640201568604,2,False,2,48
76,1,0,0,0.23878476558213782,1.5319621562957764,4.22910213470459,6,False,2,49
77,1,0,1,0.17301558774865466,1.0010380744934082,3.288904905319214,8,False,2,50
78,2,0,0,0.3424017118307636,1.063910961151123,2.02663516998291,1,False,2,51
79,2,1,1,0.14961661980331456,0.990246057510376,4.559000253677368,3,False,2,52
80,0,1,1,0.21463207196949763,1.4347469806671143,4.186607122421265,5,False,2,53
81,2,1,0,0.10547753864831796,1.9927711486816406,1.8736827373504639,9,False,2,54
82,1,0,0,0.24553976054742016,1.3688890933990479,4.2542030811309814,7,False,2,55
83,0,1,0,0.1311133396075668,1.600527048110962,3.8465561866760254,1,False,2,56
84,0,0,0,0.2632232078898928,1.2078068256378174,2.74627685546875,3,False,3,0
85,0,1,3,0,0,1.6465482711791992,8,True,3,1
86,2,1,1,0.19873146376017892,1.5670030117034912,2.039139986038208,1,False,3,2
87,1,0,0,0.20860226007873783,0.7292418479919434,1.8230183124542236,6,False,3,3
88,2,1,1,0.12004062570191812,0.5353679656982422,1.4542272090911865,7,False,3,4
89,2,0,0,0.15400256016151104,0.5215401649475098,2.9433350563049316,1,False,3,5
90,1,0,0,0.2567238705447895,0.8295118808746338,3.3506181240081787,5,False,3,6
91,0,1,1,0.30904967695602814,1.2636640071868896,1.136009931564331,3,False,3,7
92,1,1,1,0.1968883081285674,1.463759183883667,1.2397372722625732,7,False,3,8
93,2,1,0,0.3062323434553406,1.5081439018249512,1.5517559051513672,5,False,3,9
94,0,1,1,0.30698142670267636,1.5010161399841309,1.1411430835723877,3,False,3,10
95,0,1,1,0.27733063606746666,0.7715740203857422,1.0190980434417725,9,False,3,11
96,0,1,1,0.3262961877809461,1.0704419612884521,1.347653865814209,5,False,3,12
97,1,1,1,0.10985736775035237,1.289788007736206,1.6438109874725342,3,False,3,13
98,1,0,0,0.14611709058042094,1.3179290294647217,3.4406540393829346,7,False,3,14
99,2,0,0,0.15419514341732052,0.834399938583374,3.5060667991638184,5,False,3,15
100,0,1,1,0.39694438959699463,0.5621891021728516,1.487295150756836,3,False,3,16
101,1,0,0,0.10149455656259282,1.9273202419281006,2.162181854248047,7,False,3,17
102,2,0,0,0.3387329139523797,0.43544888496398926,1.2691199779510498,9,False,3,18
103,1,0,0,0.16946866084191686,2.1246840953826904,3.7882399559020996,2,False,3,19
104,1,1,1,0.23748479471392106,1.369743824005127,2.726433038711548,4,False,3,20
105,2,1,1,0.197503268261896,0.46769189834594727,1.8592159748077393,8,False,3,21
106,0,1,1,0.29677285563755673,1.429689884185791,2.413210153579712,2,False,3,22
107,1,1,1,0.3330543085567117,0.5904960632324219,2.9390769004821777,4,False,3,23
108,1,0,0,0.10598026233868306,0.7730920314788818,3.500295877456665,8,False,3,24
109,0,0,0,0.33120729497145485,0.9439048767089844,2.3320610523223877,6,False,3,25
110,2,1,0,0.3650311771706808,1.0758190155029297,1.3776321411132812,9,False,3,26
111,1,0,0,0.3856459427438591,1.394432783126831,3.099637031555176,7,False,3,27
112,1,1,0,0.2506165455437286,1.3123788833618164,2.823854923248291,5,False,3,28
113,0,0,0,0.3530975075262788,1.1377530097961426,2.097486972808838,8,False,3,29
114,2,0,1,0.17545231596011898,0.8032197952270508,3.6284801959991455,2,False,3,30
115,0,1,0,0.19448618190881034,1.5195651054382324,1.86627197265625,9,False,3,31
116,0,1,1,0.2262489734112434,2.149338960647583,1.921396017074585,3,False,3,32
117,2,1,0,0.36761310785889323,0.6952118873596191,1.54193115234375,6,False,3,33
118,1,0,0,0.23174703068842398,1.935671091079712,2.12509822845459,8,False,3,34
119,0,0,0,0.11550342867864884,1.573030948638916,1.0859618186950684,9,False,3,35
120,2,0,0,0.23940296983326387,0.879401445388794,2.4666621685028076,7,False,3,36
121,1,1,1,0.23978421700747543,1.0801451206207275,4.268765926361084,1,False,3,37
122,2,1,0,0.2789674883130282,1.0874528884887695,3.038944721221924,8,False,3,38
123,2,1,1,0.3542890212635271,2.040815830230713,2.239531993865967,3,False,3,39
124,0,0,0,0.16440156582023596,1.737009048461914,4.064181089401245,2,False,3,40
125,1,0,0,0.18000466824645195,1.190608024597168,3.3506298065185547,1,False,3,41
126,2,1,1,0.14477672292007204,0.9864070415496826,1.8397071361541748,9,False,3,42
127,1,1,0,0.16519007515453388,1.8883650302886963,2.7623870372772217,5,False,3,43
128,2,1,1,0.16719684467315124,1.2055232524871826,1.8270292282104492,6,False,3,44
129,2,1,0,0.21956669167344198,1.847062110900879,3.19941782951355,2,False,3,45
130,2,0,0,0.11019921326211247,0.6623289585113525,1.3354098796844482,7,False,3,46
131,2,0,0,0.18305709375465318,1.694544792175293,2.1303391456604004,1,False,3,47
132,0,1,1,0.3845785782054889,1.0946218967437744,1.6824522018432617,9,False,3,48
133,0,0,0,0.3525880418199817,0.8602879047393799,2.7450881004333496,8,False,3,49
134,0,0,0,0.1472754224826422,2.0346622467041016,2.5042810440063477,3,False,3,50
135,2,0,0,0.2039235471298048,1.5807979106903076,3.2595701217651367,1,False,3,51
136,1,1,1,0.21841160022367256,2.126837968826294,1.5518720149993896,9,False,3,52
137,2,1,0,0.38991027918670895,0.6893508434295654,5.7019593715667725,5,False,3,53
138,2,1,1,0.1536143800091099,0.5076427459716797,1.490401029586792,3,False,3,54
139,2,1,1,0.1582881997787859,1.0071802139282227,5.1770079135894775,1,False,3,55
140,0,0,0,0.2957269319774497,0.9894781112670898,3.065964937210083,7,False,3,56
141,1,1,1,0.31402020690575627,0.5557861328125,2.1623940467834473,9,False,3,57
142,1,1,0,0.31153423956405574,1.9688098430633545,2.273052930831909,6,False,3,58
143,0,0,0,0.2798531841525488,0.7874958515167236,1.1732292175292969,3,False,3,59
